Packet number,Gyroscope X (deg/s),Gyroscope Y (deg/s),Gyroscope Z (deg/s),Accelerometer X (g),Accelerometer Y (g),Accelerometer Z (g),Magnetometer X (G),Magnetometer Y (G),Magnetometer Z (G)
0,0.3125,-0.25,-0.125,-0.5385742,0.2529297,0.8012695,0.1738281,-0.01367188,-0.3740234
1,0.1875,-0.125,0,-0.534668,0.2529297,0.8012695,0.1762695,-0.02148438,-0.3740234
3,0.1875,-0.625,0,-0.5307617,0.2451172,0.7900391,0.1762695,-0.02148438,-0.3740234
4,0.25,-0.375,-0.125,-0.5385742,0.2490234,0.7978516,0.1762695,-0.01904297,-0.3740234
6,0.3125,-0.3125,-0.1875,-0.534668,0.2490234,0.8012695,0.1762695,-0.01367188,-0.3725586
7,0.25,-0.125,0,-0.534668,0.2490234,0.8012695,0.1762695,-0.01367188,-0.3725586
9,0.1875,-0.3125,-0.0625,-0.534668,0.2529297,0.8012695,0.1777344,-0.02294922,-0.3725586
10,0.25,-0.1875,-0.125,-0.5385742,0.2568359,0.7978516,0.175293,-0.01660156,-0.3740234
12,0.25,-0.25,-0.125,-0.5385742,0.2568359,0.7861328,0.175293,-0.01660156,-0.3740234
13,0.25,-0.3125,0,-0.5385742,0.2529297,0.7900391,0.1762695,-0.01513672,-0.3740234
15,0.25,-0.25,-0.0625,-0.534668,0.2451172,0.7900391,0.1777344,-0.02148438,-0.371582
16,0.125,-0.375,-0.125,-0.534668,0.2490234,0.7978516,0.1777344,-0.02148438,-0.371582
18,0.125,-0.5625,0,-0.534668,0.2451172,0.7939453,0.1777344,-0.01660156,-0.3740234
19,0.375,-0.25,-0.125,-0.534668,0.2490234,0.7939453,0.1777344,-0.01660156,-0.371582
21,0.25,-0.5,-0.125,-0.5268555,0.2568359,0.8012695,0.1777344,-0.01660156,-0.371582
22,0.1875,-0.375,-0.3125,-0.534668,0.2607422,0.7978516,0.1777344,-0.02001953,-0.3754883
24,0.0625,-0.375,-0.4375,-0.534668,0.2568359,0.7939453,0.175293,-0.01513672,-0.3740234
25,0.0625,0,-0.4375,-0.534668,0.2607422,0.7900391,0.175293,-0.01513672,-0.3740234
27,-0.125,-0.4375,-0.375,-0.534668,0.2568359,0.7900391,0.1762695,-0.01757813,-0.3725586
28,-0.0625,-0.25,-0.4375,-0.5307617,0.2490234,0.7978516,0.1777344,-0.02294922,-0.3740234
30,-0.1875,-0.125,-0.4375,-0.5424805,0.2529297,0.7939453,0.1777344,-0.02294922,-0.3740234
31,0,-0.1875,-0.5,-0.534668,0.2490234,0.7900391,0.1738281,-0.01123047,-0.3740234
33,-0.1875,-0.3125,-0.4375,-0.5385742,0.2529297,0.8012695,0.1787109,-0.01904297,-0.3740234
34,-0.0625,-0.125,-0.5625,-0.534668,0.2529297,0.7900391,0.1787109,-0.01904297,-0.3740234
36,-0.125,-0.125,-0.4375,-0.534668,0.2529297,0.7900391,0.1777344,-0.02148438,-0.3740234
37,-0.25,-0.4375,-0.75,-0.5385742,0.2529297,0.8012695,0.175293,-0.01513672,-0.3725586
39,-0.25,-0.3125,-0.4375,-0.534668,0.2529297,0.7978516,0.175293,-0.01513672,-0.3725586
40,-0.375,-0.25,-0.8125,-0.5385742,0.2568359,0.7978516,0.1787109,-0.01904297,-0.3740234
42,-0.1875,0,-0.8125,-0.5385742,0.2568359,0.8012695,0.1762695,-0.01904297,-0.3740234
43,-0.1875,-0.375,-0.75,-0.5307617,0.2529297,0.7939453,0.1762695,-0.01904297,-0.3740234
45,-0.1875,-0.125,-0.6875,-0.534668,0.2490234,0.7939453,0.175293,-0.01269531,-0.371582
46,-0.25,-0.1875,-0.875,-0.5385742,0.2529297,0.7939453,0.1787109,-0.02148438,-0.3725586
48,-0.25,-0.125,-0.8125,-0.5307617,0.2568359,0.7822266,0.1787109,-0.02148438,-0.3725586
49,-0.0625,-0.375,-0.875,-0.5385742,0.2529297,0.7978516,0.1738281,-0.01904297,-0.3769531
51,-0.125,-0.25,-0.875,-0.5307617,0.2568359,0.7900391,0.1738281,-0.01513672,-0.3725586
52,-0.375,-0.125,-1,-0.534668,0.2529297,0.7900391,0.1738281,-0.01513672,-0.3725586
54,-0.4375,0,-1.125,-0.5385742,0.2529297,0.7939453,0.1777344,-0.02294922,-0.3725586
55,-0.1875,-0.25,-1.0625,-0.5307617,0.2490234,0.7939453,0.1738281,-0.01757813,-0.3754883
57,0,0,-0.8125,-0.5385742,0.2490234,0.7939453,0.1738281,-0.01757813,-0.3754883
58,0.125,0,-0.9375,-0.5385742,0.2568359,0.7978516,0.175293,-0.01367188,-0.3740234
60,0,-0.1875,-1,-0.5307617,0.2568359,0.8012695,0.1777344,-0.02294922,-0.3740234
61,0.0625,0.0625,-1,-0.534668,0.2568359,0.7978516,0.1777344,-0.02294922,-0.3740234
63,-0.125,0.375,-1.25,-0.5268555,0.2529297,0.8012695,0.175293,-0.01367188,-0.3754883
64,0,0.0625,-1.1875,-0.534668,0.2607422,0.8051758,0.1762695,-0.01513672,-0.3740234
66,0,0.1875,-1,-0.5385742,0.2568359,0.7978516,0.1762695,-0.01513672,-0.3740234
67,0.0625,0.125,-1.25,-0.5385742,0.2607422,0.8012695,0.175293,-0.02001953,-0.3740234
69,0.125,0.5,-1.125,-0.5307617,0.2568359,0.7939453,0.175293,-0.01367188,-0.3754883
70,-0.125,0.4375,-1.375,-0.5268555,0.2607422,0.7978516,0.175293,-0.01367188,-0.3754883
72,0,0.3125,-1.4375,-0.5268555,0.2529297,0.7978516,0.175293,-0.01660156,-0.3725586
73,-0.1875,0.3125,-1.4375,-0.5229492,0.2529297,0.7900391,0.1777344,-0.02148438,-0.3740234
75,0,0.5625,-1.3125,-0.5307617,0.2607422,0.7939453,0.1777344,-0.02148438,-0.3740234
76,-0.3125,0.3125,-1.375,-0.534668,0.2568359,0.8012695,0.1738281,-0.01513672,-0.3725586
78,-0.25,0.4375,-1.4375,-0.5307617,0.2529297,0.8051758,0.1777344,-0.01757813,-0.3740234
79,-0.0625,0.3125,-1.5,-0.5307617,0.2568359,0.7978516,0.1777344,-0.01757813,-0.3740234
81,-0.1875,0.5,-1.4375,-0.534668,0.2568359,0.7900391,0.1762695,-0.01904297,-0.3740234
82,-0.25,-0.0625,-1.4375,-0.5307617,0.2529297,0.7978516,0.1762695,-0.01269531,-0.3740234
84,0.125,0.3125,-1.5,-0.519043,0.2451172,0.8051758,0.1762695,-0.01269531,-0.3740234
85,-0.125,0.9375,-1.6875,-0.5424805,0.2646484,0.7861328,0.1777344,-0.02001953,-0.3725586
87,-0.4375,-0.125,-1.5,-0.5424805,0.2529297,0.7861328,0.175293,-0.01904297,-0.3754883
90,-0.3125,0,-1.6875,-0.5307617,0.2568359,0.8051758,0.175293,-0.01904297,-0.3754883
92,-0.625,0.625,-1.625,-0.5268555,0.2451172,0.8012695,0.1762695,-0.01269531,-0.3725586
93,-0.4375,0.25,-1.6875,-0.5463867,0.2451172,0.7939453,0.1787109,-0.02001953,-0.3725586
95,-0.3125,0.375,-1.5,-0.534668,0.2490234,0.7939453,0.1787109,-0.02001953,-0.3725586
96,-0.1875,0.1875,-1.625,-0.534668,0.2529297,0.7978516,0.175293,-0.01660156,-0.3740234
98,-0.4375,0.375,-1.625,-0.5385742,0.2490234,0.7978516,0.1738281,-0.01367188,-0.3740234
99,-0.6875,0.3125,-1.625,-0.534668,0.2490234,0.7978516,0.1738281,-0.01367188,-0.3740234
101,-0.4375,0.0625,-1.5,-0.5424805,0.2412109,0.8012695,0.1777344,-0.02148438,-0.3740234
102,0,0.1875,-1.5,-0.534668,0.2451172,0.8012695,0.1738281,-0.01660156,-0.3740234
104,-0.0625,0.125,-1.4375,-0.5385742,0.2490234,0.7978516,0.1738281,-0.01660156,-0.3740234
105,0,0.1875,-1.5625,-0.534668,0.2490234,0.7978516,0.1762695,-0.01513672,-0.3740234
107,-0.375,0.125,-1.3125,-0.5424805,0.2568359,0.8012695,0.1777344,-0.02001953,-0.3740234
108,-0.4375,0.4375,-1.3125,-0.5385742,0.2412109,0.7978516,0.1777344,-0.02001953,-0.3740234
110,-0.5,0.1875,-1.25,-0.5385742,0.2333984,0.7939453,0.1738281,-0.01367188,-0.3740234
111,0.125,0.4375,-1.25,-0.5385742,0.2373047,0.7939453,0.1787109,-0.01660156,-0.3754883
113,0.1875,0.25,-1.125,-0.5307617,0.2412109,0.8012695,0.1787109,-0.01660156,-0.3754883
114,0.3125,0.25,-1,-0.534668,0.2412109,0.7978516,0.1787109,-0.02148438,-0.3754883
116,0.375,0.3125,-1,-0.5424805,0.2373047,0.7939453,0.175293,-0.01269531,-0.3725586
117,0.0625,0.5,-0.875,-0.5385742,0.2451172,0.8012695,0.175293,-0.01269531,-0.3725586
119,0.8125,0.125,-1.0625,-0.5424805,0.2451172,0.8012695,0.1777344,-0.01660156,-0.3725586
120,0.6875,0.25,-0.6875,-0.5385742,0.2451172,0.7939453,0.1777344,-0.02001953,-0.3725586
122,0.6875,0.5625,-0.6875,-0.5385742,0.2451172,0.8051758,0.1777344,-0.02001953,-0.3725586
123,0.9375,0.75,-0.75,-0.5424805,0.2490234,0.8012695,0.1762695,-0.01269531,-0.3740234
125,0.9375,0.625,-0.5,-0.5424805,0.2451172,0.8012695,0.1777344,-0.01904297,-0.3740234
126,1.25,0.6875,-0.5,-0.5424805,0.2412109,0.8012695,0.1777344,-0.01904297,-0.3740234
128,1.3125,0.75,-0.5625,-0.534668,0.2412109,0.7978516,0.1762695,-0.02001953,-0.3754883
129,1.4375,0.6875,-0.375,-0.534668,0.2490234,0.7978516,0.175293,-0.01367188,-0.3754883
131,1.5,0.75,-0.4375,-0.5385742,0.2451172,0.8012695,0.175293,-0.01367188,-0.3754883
132,1.625,0.875,-0.375,-0.5385742,0.2490234,0.7939453,0.1787109,-0.02001953,-0.3725586
134,1.5625,0.625,-0.0625,-0.5424805,0.2451172,0.7939453,0.175293,-0.01660156,-0.3740234
135,1.625,1,-0.375,-0.5385742,0.2451172,0.7978516,0.175293,-0.01660156,-0.3740234
137,1.5625,0.75,-0.25,-0.5424805,0.2490234,0.7783203,0.175293,-0.01269531,-0.3740234
138,1.625,0.4375,-0.375,-0.5424805,0.2490234,0.7939453,0.1787109,-0.02148438,-0.3725586
140,1.4375,0.375,-0.3125,-0.5424805,0.2529297,0.7978516,0.1787109,-0.02148438,-0.3725586
141,1.25,0.6875,-0.3125,-0.5385742,0.2490234,0.8051758,0.175293,-0.01660156,-0.3740234
143,1.4375,0.625,-0.5,-0.534668,0.2451172,0.7978516,0.175293,-0.01367188,-0.3754883
144,1.5625,0.5,-0.125,-0.5385742,0.2451172,0.8012695,0.175293,-0.01367188,-0.3754883
146,1.5,0.5625,-0.0625,-0.5424805,0.2451172,0.7939453,0.1777344,-0.02294922,-0.3740234
147,1.625,0.4375,-0.3125,-0.5424805,0.2490234,0.7900391,0.1738281,-0.01513672,-0.3725586
149,1.75,0.375,-0.3125,-0.5424805,0.2568359,0.8012695,0.1738281,-0.01513672,-0.3725586
150,1.125,0.5625,-0.3125,-0.534668,0.2490234,0.7939453,0.1787109,-0.01660156,-0.3725586
152,1.5,0.1875,0,-0.5385742,0.2451172,0.7900391,0.1777344,-0.02148438,-0.3740234
153,1.375,0.375,-0.1875,-0.5307617,0.2490234,0.8012695,0.1777344,-0.02148438,-0.3740234
155,1.75,0.25,-0.25,-0.5424805,0.2529297,0.7939453,0.175293,-0.01513672,-0.3740234
156,1.9375,0.3125,-0.25,-0.5424805,0.2490234,0.7939453,0.1777344,-0.01904297,-0.3740234
158,1.4375,0.0625,-0.25,-0.5424805,0.2529297,0.7900391,0.1777344,-0.01904297,-0.3740234
159,1.3125,0.4375,-0.1875,-0.5385742,0.2490234,0.7900391,0.1762695,-0.02148438,-0.3740234
161,1.5,0.75,-0.25,-0.534668,0.2451172,0.7978516,0.175293,-0.01513672,-0.3754883
162,1.375,0.6875,0,-0.5424805,0.2451172,0.7978516,0.175293,-0.01513672,-0.3754883
164,1.9375,0.4375,-0.3125,-0.5307617,0.2451172,0.8051758,0.1762695,-0.01904297,-0.3754883
165,2.1875,0.4375,-0.125,-0.5385742,0.2529297,0.7900391,0.1777344,-0.02001953,-0.3754883
167,2,0.25,-0.25,-0.5385742,0.2490234,0.7978516,0.1777344,-0.02001953,-0.3754883
168,1.6875,0.5625,-0.125,-0.5385742,0.2568359,0.7978516,0.1762695,-0.01269531,-0.3740234
170,1.625,0.8125,-0.1875,-0.5463867,0.2490234,0.8051758,0.1787109,-0.02148438,-0.3740234
171,1.75,0.5,-0.125,-0.5385742,0.2451172,0.7939453,0.1787109,-0.02148438,-0.3740234
173,1.8125,0.5625,0,-0.5385742,0.2490234,0.7939453,0.1762695,-0.02001953,-0.3740234
174,1.5,0.5,0,-0.5385742,0.2607422,0.7978516,0.1762695,-0.01367188,-0.3740234
176,1.9375,0.8125,-0.125,-0.5385742,0.2529297,0.7939453,0.1762695,-0.01367188,-0.3740234
177,1.625,0.6875,0,-0.534668,0.2529297,0.7861328,0.1787109,-0.02148438,-0.3740234
179,1.8125,0.625,-0.125,-0.534668,0.2685547,0.7939453,0.175293,-0.01660156,-0.3740234
180,2.125,0.0625,-0.25,-0.5385742,0.2685547,0.7978516,0.175293,-0.01660156,-0.3740234
182,1.9375,0.5,-0.25,-0.5385742,0.2646484,0.7900391,0.1762695,-0.01660156,-0.3740234
183,1.75,0.1875,-0.4375,-0.5424805,0.2607422,0.7900391,0.1801758,-0.02294922,-0.3740234
185,2.3125,0.0625,-0.375,-0.5385742,0.2568359,0.7861328,0.1801758,-0.02294922,-0.3740234
187,1.6875,0,-0.3125,-0.534668,0.2685547,0.8012695,0.175293,-0.01660156,-0.3725586
189,0.9375,0.3125,-0.5,-0.534668,0.2607422,0.7861328,0.1777344,-0.01660156,-0.3725586
190,1.375,0.25,-0.5625,-0.534668,0.2607422,0.7939453,0.1777344,-0.01660156,-0.3725586
192,1,0.125,-0.75,-0.5385742,0.2568359,0.7861328,0.1777344,-0.02294922,-0.3754883
193,0.75,0.0625,-0.6875,-0.5385742,0.2568359,0.7939453,0.175293,-0.01513672,-0.3754883
195,0.5,0.1875,-0.875,-0.534668,0.2607422,0.7900391,0.175293,-0.01513672,-0.3754883
196,0.125,0.1875,-0.75,-0.5385742,0.2568359,0.7900391,0.1787109,-0.01513672,-0.371582
198,-0.0625,0.125,-0.75,-0.5385742,0.2529297,0.8012695,0.1777344,-0.02001953,-0.3740234
199,0,0.1875,-0.75,-0.5385742,0.2490234,0.7900391,0.1777344,-0.02001953,-0.3740234
201,0.0625,0.125,-0.8125,-0.5307617,0.2490234,0.7939453,0.175293,-0.01513672,-0.3754883
202,0.1875,0.3125,-0.75,-0.5385742,0.2529297,0.7939453,0.1777344,-0.01757813,-0.3740234
204,0.4375,0,-0.875,-0.5385742,0.2529297,0.7939453,0.1777344,-0.01757813,-0.3740234
205,0.4375,0,-0.8125,-0.5385742,0.2412109,0.7978516,0.1787109,-0.02148438,-0.3754883
207,0.375,0,-0.6875,-0.5385742,0.2529297,0.7900391,0.1762695,-0.01367188,-0.3740234
208,0.625,0,-0.9375,-0.5424805,0.2451172,0.8012695,0.1762695,-0.01367188,-0.3740234
210,0.6875,0.3125,-0.75,-0.5463867,0.2451172,0.7939453,0.1787109,-0.02148438,-0.3740234
211,0.5,0.125,-0.8125,-0.5385742,0.2490234,0.7978516,0.175293,-0.01904297,-0.3740234
213,0.5625,-0.125,-0.75,-0.534668,0.2490234,0.8012695,0.175293,-0.01904297,-0.3740234
214,0.3125,0.25,-0.5,-0.5424805,0.2412109,0.7978516,0.1738281,-0.01367188,-0.3725586
216,0.6875,0.5625,-0.5625,-0.5424805,0.2412109,0.7978516,0.1787109,-0.02001953,-0.3754883
217,0.75,0.1875,-0.3125,-0.5385742,0.2451172,0.7900391,0.1787109,-0.02001953,-0.3754883
219,0.875,0.375,-0.3125,-0.5385742,0.2490234,0.7939453,0.175293,-0.01757813,-0.3725586
220,0.6875,0.5,-0.5625,-0.5424805,0.2568359,0.8012695,0.1762695,-0.01367188,-0.3725586
222,0.5625,0.5,-0.3125,-0.5385742,0.2529297,0.8051758,0.1762695,-0.01367188,-0.3725586
223,0.5625,0.1875,-0.625,-0.5385742,0.2568359,0.7822266,0.1787109,-0.02148438,-0.3725586
225,0.375,0.5,-0.4375,-0.534668,0.2490234,0.7939453,0.175293,-0.01904297,-0.3725586
226,0.1875,0.4375,-0.75,-0.534668,0.2607422,0.7939453,0.175293,-0.01904297,-0.3725586
228,0.25,0.1875,-0.5625,-0.5307617,0.2451172,0.8012695,0.1738281,-0.01660156,-0.3740234
229,0.3125,0.1875,-0.5625,-0.5385742,0.2490234,0.7939453,0.1787109,-0.02148438,-0.3725586
231,0.4375,0.125,-0.75,-0.5385742,0.2568359,0.7939453,0.1787109,-0.02148438,-0.3725586
232,0.4375,0.5,-0.4375,-0.534668,0.2568359,0.7861328,0.175293,-0.01513672,-0.3725586
234,0.1875,0.1875,-0.6875,-0.5385742,0.2568359,0.7900391,0.1777344,-0.01757813,-0.3740234
235,0.1875,0,-0.75,-0.534668,0.2529297,0.7861328,0.1777344,-0.01757813,-0.3740234
237,0.1875,0.5,-0.625,-0.5385742,0.2490234,0.8012695,0.1777344,-0.02294922,-0.3740234
238,0.125,0.25,-0.5625,-0.5385742,0.2529297,0.7861328,0.175293,-0.01660156,-0.3754883
240,0.4375,0.0625,-0.5625,-0.534668,0.2568359,0.7978516,0.175293,-0.01660156,-0.3754883
241,0.125,0.25,-0.8125,-0.5385742,0.2607422,0.8012695,0.1762695,-0.02001953,-0.3754883
243,0,0.375,-0.6875,-0.5385742,0.2568359,0.7900391,0.1777344,-0.02148438,-0.3740234
244,-0.0625,0,-0.9375,-0.5385742,0.2607422,0.7939453,0.1777344,-0.02148438,-0.3740234
246,0,0.5,-0.875,-0.5385742,0.2529297,0.7978516,0.1762695,-0.01367188,-0.3740234
247,-0.3125,0,-0.9375,-0.5385742,0.2568359,0.7900391,0.1787109,-0.02001953,-0.3725586
249,-0.125,0,-1.0625,-0.5463867,0.2568359,0.7861328,0.1787109,-0.02001953,-0.3725586
250,-0.4375,0.0625,-0.9375,-0.5385742,0.2607422,0.7900391,0.175293,-0.02001953,-0.3725586
252,-0.5,0.25,-1.0625,-0.534668,0.2607422,0.7900391,0.175293,-0.01513672,-0.3725586
253,-0.625,-0.125,-1.1875,-0.5385742,0.2607422,0.7900391,0.175293,-0.01513672,-0.3725586
255,-0.4375,0,-1.25,-0.534668,0.2607422,0.7900391,0.1787109,-0.02001953,-0.3725586
256,-0.75,-0.0625,-1.0625,-0.534668,0.2529297,0.7900391,0.1762695,-0.01904297,-0.3754883
258,-0.5625,-0.0625,-1.1875,-0.5385742,0.2607422,0.7978516,0.1762695,-0.01904297,-0.3754883
259,-0.8125,-0.125,-1.125,-0.5424805,0.2529297,0.8012695,0.1762695,-0.01513672,-0.3725586
261,-0.5625,0.1875,-1.125,-0.5385742,0.2568359,0.7939453,0.1787109,-0.02001953,-0.3740234
262,-0.375,0,-1.25,-0.5424805,0.2685547,0.7822266,0.1787109,-0.02001953,-0.3740234
264,-0.8125,0,-1.25,-0.5385742,0.2568359,0.7822266,0.1762695,-0.01660156,-0.3740234
265,-1.0625,0.25,-1.125,-0.5385742,0.2451172,0.8012695,0.1762695,-0.01660156,-0.3725586
267,-0.75,0,-1,-0.5385742,0.2451172,0.7978516,0.1762695,-0.01660156,-0.3725586
268,-0.5625,0,-1.1875,-0.5424805,0.2568359,0.7978516,0.1801758,-0.02148438,-0.3725586
270,-0.5,-0.125,-1.125,-0.5385742,0.2529297,0.7822266,0.175293,-0.01660156,-0.3740234
271,-0.8125,0,-1,-0.5385742,0.2646484,0.7978516,0.175293,-0.01660156,-0.3740234
273,-0.8125,0,-1.1875,-0.534668,0.2529297,0.7939453,0.1787109,-0.01757813,-0.3725586
274,-1.0625,0,-1.1875,-0.5385742,0.2607422,0.7939453,0.1787109,-0.02294922,-0.3725586
276,-0.8125,0,-1.1875,-0.534668,0.2451172,0.7939453,0.1787109,-0.02294922,-0.3725586
277,-0.8125,-0.125,-1.0625,-0.5385742,0.2490234,0.7861328,0.175293,-0.01513672,-0.3754883
279,-0.8125,-0.0625,-1.0625,-0.5385742,0.2529297,0.7939453,0.1777344,-0.01757813,-0.3725586
280,-1.1875,0.0625,-1.1875,-0.5424805,0.2451172,0.7978516,0.1777344,-0.01757813,-0.3725586
282,-0.8125,-0.125,-1.125,-0.5463867,0.2373047,0.7939453,0.1787109,-0.02001953,-0.3725586
285,-0.5625,-0.1875,-1.125,-0.5424805,0.2490234,0.7900391,0.1762695,-0.01513672,-0.3725586
287,-0.5625,0,-1.0625,-0.534668,0.2490234,0.8012695,0.1762695,-0.01513672,-0.3725586
288,-0.625,0.125,-1,-0.5424805,0.2490234,0.7861328,0.1787109,-0.01757813,-0.3740234
290,-0.625,0,-1.125,-0.5424805,0.2490234,0.7939453,0.1762695,-0.02001953,-0.3740234
291,-0.25,-0.3125,-0.9375,-0.5463867,0.2490234,0.8012695,0.1762695,-0.02001953,-0.3740234
293,-0.4375,-0.125,-1.0625,-0.5424805,0.2529297,0.7978516,0.1777344,-0.01367188,-0.3725586
294,-0.5,0.0625,-1,-0.5424805,0.2490234,0.8012695,0.1777344,-0.02148438,-0.3725586
296,-0.3125,-0.125,-1,-0.5424805,0.2490234,0.7939453,0.1777344,-0.02148438,-0.3725586
297,-0.375,0,-0.8125,-0.5385742,0.2529297,0.7900391,0.175293,-0.01757813,-0.3740234
299,-0.1875,0.0625,-0.9375,-0.5424805,0.2490234,0.7978516,0.175293,-0.01123047,-0.3725586
300,-0.125,0,-0.875,-0.5463867,0.2529297,0.7939453,0.175293,-0.01123047,-0.3725586
302,-0.125,0.1875,-0.875,-0.5385742,0.2568359,0.7978516,0.1801758,-0.02001953,-0.3725586
303,-0.125,0.1875,-0.9375,-0.5424805,0.2529297,0.7978516,0.1762695,-0.01757813,-0.3725586
305,-0.375,0,-0.8125,-0.5424805,0.2451172,0.7939453,0.1762695,-0.01757813,-0.3725586
306,0,0.125,-1,-0.534668,0.2490234,0.8012695,0.175293,-0.01513672,-0.3725586
308,0.0625,0.1875,-0.75,-0.5463867,0.2451172,0.7900391,0.1777344,-0.02001953,-0.371582
309,-0.0625,0.0625,-0.875,-0.5463867,0.2451172,0.7939453,0.1777344,-0.02001953,-0.371582
311,-0.0625,0.1875,-0.75,-0.5424805,0.2490234,0.7978516,0.1762695,-0.01513672,-0.3725586
312,0.1875,0.0625,-0.8125,-0.5424805,0.2490234,0.7978516,0.1762695,-0.01513672,-0.3725586
314,0,0.25,-0.6875,-0.5424805,0.2490234,0.7978516,0.1762695,-0.01513672,-0.3725586
315,0,0.125,-1,-0.5424805,0.2529297,0.7939453,0.1777344,-0.02148438,-0.3725586
317,0.1875,0,-0.75,-0.5385742,0.2490234,0.7939453,0.1762695,-0.01660156,-0.3740234
318,0.0625,0.3125,-0.625,-0.5424805,0.2412109,0.8012695,0.1762695,-0.01660156,-0.3740234
320,0.3125,0.25,-0.75,-0.5424805,0.2451172,0.7978516,0.1777344,-0.01513672,-0.3740234
321,0.1875,0,-0.625,-0.5424805,0.2529297,0.7978516,0.1787109,-0.02294922,-0.3725586
323,0.1875,0.125,-0.625,-0.5424805,0.2529297,0.7939453,0.1787109,-0.02294922,-0.3725586
324,0.1875,0.125,-0.625,-0.5424805,0.2490234,0.7783203,0.175293,-0.01367188,-0.371582
326,0.25,0.1875,-0.75,-0.5424805,0.2490234,0.7978516,0.1801758,-0.02001953,-0.3740234
327,0,0.125,-0.625,-0.5385742,0.2490234,0.7822266,0.1801758,-0.02001953,-0.3740234
329,0.0625,-0.125,-0.625,-0.5463867,0.2568359,0.7900391,0.1762695,-0.02001953,-0.3725586
330,-0.0625,-0.1875,-0.75,-0.5385742,0.2529297,0.7900391,0.1738281,-0.01367188,-0.3754883
332,-0.25,0.0625,-0.875,-0.5463867,0.2490234,0.7939453,0.1738281,-0.01367188,-0.3754883
333,-0.25,0.1875,-0.8125,-0.550293,0.2529297,0.7939453,0.1777344,-0.02148438,-0.3740234
335,-0.1875,-0.1875,-0.8125,-0.5424805,0.2529297,0.8012695,0.1762695,-0.01904297,-0.3754883
336,-0.0625,-0.0625,-0.875,-0.5385742,0.2568359,0.7978516,0.1762695,-0.01904297,-0.3754883
338,-0.375,-0.125,-0.75,-0.534668,0.2490234,0.7939453,0.1738281,-0.01367188,-0.3740234
339,-0.3125,-0.1875,-0.9375,-0.5385742,0.2490234,0.8012695,0.1787109,-0.02001953,-0.3725586
341,-0.4375,-0.125,-1.0625,-0.5385742,0.2529297,0.7939453,0.1787109,-0.02001953,-0.3725586
342,-0.5625,0.125,-0.875,-0.5385742,0.2568359,0.8012695,0.1738281,-0.01904297,-0.3740234
344,-0.25,-0.125,-0.8125,-0.5385742,0.2451172,0.7939453,0.175293,-0.01367188,-0.3740234
345,-0.0625,0,-1,-0.534668,0.2490234,0.7900391,0.175293,-0.01367188,-0.3740234
347,-0.125,0,-0.9375,-0.5385742,0.2490234,0.7939453,0.1787109,-0.02148438,-0.3725586
348,-0.375,0,-0.9375,-0.5385742,0.2490234,0.7900391,0.1777344,-0.01660156,-0.3725586
350,-0.375,0.0625,-0.875,-0.5424805,0.2529297,0.8012695,0.1777344,-0.01660156,-0.3725586
351,-0.0625,-0.125,-1,-0.5385742,0.2451172,0.7978516,0.1777344,-0.01367188,-0.3740234
353,0,0,-0.875,-0.5385742,0.2451172,0.8012695,0.1787109,-0.02148438,-0.371582
354,-0.1875,0.125,-1,-0.5424805,0.2529297,0.7939453,0.1787109,-0.02148438,-0.371582
356,-0.0625,0,-0.875,-0.5385742,0.2529297,0.7939453,0.175293,-0.01513672,-0.3740234
357,-0.125,0,-0.8125,-0.5385742,0.2490234,0.7939453,0.1777344,-0.01660156,-0.3740234
359,-0.1875,0.0625,-1,-0.5385742,0.2412109,0.7861328,0.1777344,-0.01660156,-0.3740234
360,-0.125,0.125,-0.8125,-0.5385742,0.2529297,0.7939453,0.1787109,-0.02148438,-0.3754883
362,0,-0.1875,-0.625,-0.5424805,0.2529297,0.7978516,0.1738281,-0.01269531,-0.3740234
363,-0.0625,0,-0.875,-0.5385742,0.2490234,0.7939453,0.1738281,-0.01269531,-0.3740234
365,-0.5,-0.0625,-1,-0.5385742,0.2529297,0.7939453,0.1777344,-0.01904297,-0.3725586
366,-0.5,-0.0625,-1.0625,-0.5385742,0.2568359,0.7939453,0.1787109,-0.02148438,-0.3740234
368,-0.625,-0.25,-0.6875,-0.5424805,0.2490234,0.7900391,0.1787109,-0.02148438,-0.3740234
369,-0.25,-0.125,-0.8125,-0.5424805,0.2451172,0.7978516,0.1738281,-0.01660156,-0.3754883
371,-0.1875,-0.0625,-1,-0.5385742,0.2490234,0.7939453,0.1762695,-0.01904297,-0.3740234
372,-0.3125,0.0625,-0.6875,-0.5463867,0.2451172,0.7861328,0.1762695,-0.01904297,-0.3740234
374,-0.375,-0.125,-0.75,-0.5424805,0.2529297,0.8051758,0.1777344,-0.02001953,-0.3740234
375,-0.25,-0.25,-0.8125,-0.5463867,0.2568359,0.7822266,0.1738281,-0.01269531,-0.3740234
377,-0.375,-0.1875,-0.875,-0.5463867,0.2490234,0.7900391,0.1738281,-0.01269531,-0.3740234
378,-0.375,0,-0.75,-0.534668,0.2529297,0.7978516,0.1787109,-0.02001953,-0.3725586
380,-0.3125,-0.0625,-0.6875,-0.534668,0.2529297,0.7861328,0.1762695,-0.01904297,-0.3740234
382,-0.375,-0.25,-1,-0.534668,0.2529297,0.7978516,0.1762695,-0.01904297,-0.3740234
384,-0.375,-0.125,-0.6875,-0.5385742,0.2451172,0.8012695,0.175293,-0.01513672,-0.3725586
385,-0.4375,-0.125,-1.0625,-0.5463867,0.2451172,0.7978516,0.1801758,-0.02148438,-0.3725586
387,-0.125,-0.25,-0.875,-0.534668,0.2490234,0.7939453,0.1801758,-0.02148438,-0.3725586
388,-0.375,-0.125,-0.9375,-0.5385742,0.2568359,0.7939453,0.1762695,-0.01757813,-0.3754883
390,-0.5,-0.125,-1,-0.5385742,0.2529297,0.7900391,0.175293,-0.01269531,-0.3725586
391,-0.625,-0.1875,-0.875,-0.5385742,0.2529297,0.7939453,0.175293,-0.01269531,-0.3725586
393,-0.6875,-0.125,-0.875,-0.5424805,0.2490234,0.7900391,0.1787109,-0.02148438,-0.371582
394,-0.4375,-0.125,-0.875,-0.5424805,0.2412109,0.7900391,0.1738281,-0.01513672,-0.3725586
396,-0.25,-0.3125,-0.875,-0.5424805,0.2373047,0.7939453,0.1738281,-0.01513672,-0.3725586
397,-0.25,-0.3125,-0.8125,-0.5385742,0.2412109,0.7978516,0.1777344,-0.01513672,-0.3740234
399,-0.25,0,-0.625,-0.5385742,0.2451172,0.7939453,0.1787109,-0.01904297,-0.3725586
400,-0.25,-0.125,-0.75,-0.5385742,0.2490234,0.7978516,0.1787109,-0.01904297,-0.3725586
402,-0.0625,-0.3125,-0.75,-0.5424805,0.2529297,0.7939453,0.175293,-0.01513672,-0.3740234
403,0,-0.125,-0.75,-0.534668,0.2490234,0.8012695,0.1787109,-0.01660156,-0.3725586
405,-0.1875,0.0625,-0.5,-0.5385742,0.2646484,0.7900391,0.1787109,-0.01660156,-0.3725586
406,-0.375,-0.125,-0.625,-0.5385742,0.2490234,0.7978516,0.1762695,-0.02148438,-0.3754883
408,-0.125,-0.125,-0.625,-0.5424805,0.2412109,0.7900391,0.175293,-0.01513672,-0.3740234
409,-0.3125,-0.25,-0.6875,-0.5385742,0.2412109,0.7900391,0.175293,-0.01513672,-0.3740234
411,0.0625,-0.25,-0.5625,-0.5385742,0.2568359,0.7978516,0.1787109,-0.01904297,-0.3740234
412,0.0625,0.125,-0.6875,-0.5385742,0.2529297,0.8012695,0.1787109,-0.02001953,-0.3754883
414,-0.1875,-0.0625,-0.6875,-0.5463867,0.2568359,0.7939453,0.1787109,-0.02001953,-0.3754883
415,-0.1875,-0.1875,-0.6875,-0.5424805,0.2529297,0.7978516,0.175293,-0.01367188,-0.3740234
417,-0.1875,-0.0625,-0.8125,-0.534668,0.2529297,0.7900391,0.1787109,-0.02001953,-0.3725586
418,-0.0625,-0.125,-0.5625,-0.5424805,0.2529297,0.7939453,0.1787109,-0.02001953,-0.3725586
420,-0.0625,-0.0625,-0.75,-0.5424805,0.2412109,0.8051758,0.1777344,-0.01904297,-0.3740234
421,0.0625,-0.0625,-0.4375,-0.5424805,0.2451172,0.7978516,0.175293,-0.01367188,-0.3754883
423,0,-0.0625,-0.5,-0.5385742,0.2490234,0.7939453,0.175293,-0.01367188,-0.3754883
424,0.125,-0.125,-0.6875,-0.5385742,0.2451172,0.7939453,0.1787109,-0.02001953,-0.3725586
426,0,-0.1875,-0.5625,-0.5385742,0.2490234,0.7900391,0.1777344,-0.01904297,-0.3740234
427,0.1875,-0.1875,-0.4375,-0.534668,0.2568359,0.7978516,0.1777344,-0.01904297,-0.3740234
429,0.1875,-0.0625,-0.4375,-0.534668,0.2529297,0.8051758,0.175293,-0.01367188,-0.3740234
430,0.0625,0.3125,-0.6875,-0.534668,0.2529297,0.7978516,0.1762695,-0.02148438,-0.3725586
432,0.125,-0.125,-0.5,-0.5424805,0.2412109,0.7978516,0.1762695,-0.02148438,-0.3725586
433,0.1875,-0.125,-0.5625,-0.5424805,0.2412109,0.7978516,0.175293,-0.01757813,-0.3740234
435,0.125,0,-0.5625,-0.5385742,0.2529297,0.7978516,0.1777344,-0.01513672,-0.3740234
436,0,0,-0.5625,-0.534668,0.2529297,0.7978516,0.1777344,-0.01513672,-0.3740234
438,0,-0.125,-0.6875,-0.5424805,0.2568359,0.7900391,0.1777344,-0.02148438,-0.3740234
439,0,-0.0625,-0.5,-0.5385742,0.2490234,0.7783203,0.175293,-0.01513672,-0.3740234
441,0.125,0.0625,-0.5,-0.5385742,0.2490234,0.7939453,0.175293,-0.01513672,-0.3740234
442,0,0.125,-0.75,-0.5424805,0.2412109,0.7978516,0.1787109,-0.01660156,-0.371582
444,-0.125,-0.0625,-0.4375,-0.5385742,0.2490234,0.7861328,0.1787109,-0.02148438,-0.3754883
445,-0.125,-0.0625,-0.625,-0.5463867,0.2451172,0.7900391,0.1787109,-0.02148438,-0.3754883
447,-0.1875,-0.125,-0.6875,-0.5463867,0.2490234,0.7939453,0.175293,-0.01269531,-0.3740234
448,0,-0.25,-0.5625,-0.5424805,0.2412109,0.7900391,0.1762695,-0.01757813,-0.3740234
450,0.125,-0.1875,-0.4375,-0.5424805,0.2373047,0.7939453,0.1762695,-0.01757813,-0.3740234
451,0.125,-0.0625,-0.375,-0.5424805,0.2412109,0.8012695,0.1777344,-0.02001953,-0.3725586
453,0.375,-0.0625,-0.5,-0.5424805,0.2451172,0.7900391,0.1762695,-0.01123047,-0.3754883
454,0.375,0.0625,-0.4375,-0.5424805,0.2490234,0.7939453,0.1762695,-0.01123047,-0.3754883
456,0.25,-0.0625,-0.375,-0.5424805,0.2490234,0.7939453,0.1801758,-0.01904297,-0.371582
457,0.25,-0.125,-0.4375,-0.5424805,0.2490234,0.8012695,0.1777344,-0.02001953,-0.3740234
459,0.3125,-0.1875,-0.4375,-0.5385742,0.2490234,0.7939453,0.1777344,-0.02001953,-0.3740234
460,0.25,-0.125,-0.4375,-0.534668,0.2490234,0.7978516,0.175293,-0.01269531,-0.3754883
462,0.375,0,-0.4375,-0.5385742,0.2529297,0.7900391,0.1777344,-0.02001953,-0.3725586
463,0.5625,-0.0625,-0.5,-0.534668,0.2451172,0.7939453,0.1777344,-0.02001953,-0.3725586
465,0.5625,-0.0625,-0.3125,-0.534668,0.2529297,0.7861328,0.1777344,-0.01904297,-0.3740234
466,0.375,0.125,-0.375,-0.5385742,0.2529297,0.7939453,0.1762695,-0.01367188,-0.3740234
468,0.1875,0.3125,-0.375,-0.5385742,0.2529297,0.7978516,0.1762695,-0.01367188,-0.3740234
469,0.25,0.0625,-0.5,-0.5385742,0.2529297,0.7861328,0.1787109,-0.02148438,-0.3740234
471,0.1875,0,-0.5,-0.5385742,0.2490234,0.7939453,0.1762695,-0.01757813,-0.3740234
472,0.3125,-0.1875,-0.5,-0.5424805,0.2451172,0.7861328,0.1762695,-0.01757813,-0.3740234
474,0.25,0.0625,-0.6875,-0.5385742,0.2568359,0.7939453,0.1762695,-0.01513672,-0.371582
475,0,-0.0625,-0.625,-0.5385742,0.2529297,0.7939453,0.1787109,-0.02001953,-0.3725586
477,0.3125,0,-0.5,-0.5385742,0.2529297,0.7900391,0.1787109,-0.02001953,-0.3725586
480,0,0.0625,-0.5625,-0.5385742,0.2529297,0.7861328,0.1762695,-0.01660156,-0.3740234
482,0,0.1875,-0.625,-0.5424805,0.2529297,0.7939453,0.1787109,-0.01660156,-0.3740234
483,0.0625,-0.125,-0.6875,-0.5424805,0.2490234,0.7900391,0.1787109,-0.01660156,-0.3740234
485,0.125,-0.0625,-0.75,-0.5385742,0.2607422,0.7978516,0.1787109,-0.02148438,-0.3740234
486,-0.125,0.0625,-0.625,-0.534668,0.2529297,0.7978516,0.175293,-0.01513672,-0.3754883
488,-0.125,0,-0.6875,-0.534668,0.2490234,0.7978516,0.175293,-0.01513672,-0.3754883
489,0,0.1875,-0.6875,-0.534668,0.2412109,0.8012695,0.1762695,-0.01660156,-0.3740234
491,0.1875,0.125,-0.625,-0.534668,0.2412109,0.8012695,0.1777344,-0.02294922,-0.3754883
492,0.375,-0.125,-0.375,-0.5463867,0.2490234,0.8012695,0.1777344,-0.02294922,-0.3754883
494,0.25,0.1875,-0.625,-0.534668,0.2490234,0.7900391,0.1738281,-0.01269531,-0.3725586
495,0,0.1875,-0.4375,-0.5385742,0.2490234,0.8012695,0.1787109,-0.01904297,-0.3754883
497,0.25,-0.0625,-0.4375,-0.5424805,0.2529297,0.7900391,0.1787109,-0.01904297,-0.3754883
498,0.375,-0.125,-0.5,-0.550293,0.2529297,0.7900391,0.1777344,-0.02001953,-0.3754883
500,0.125,0,-0.75,-0.534668,0.2490234,0.7900391,0.1762695,-0.01513672,-0.3754883
501,-0.0625,-0.0625,-0.5625,-0.5424805,0.2607422,0.7939453,0.1762695,-0.01513672,-0.3754883
503,0.0625,0,-0.625,-0.5385742,0.2490234,0.7939453,0.1787109,-0.02001953,-0.3740234
504,-0.0625,0,-0.6875,-0.534668,0.2490234,0.7939453,0.1777344,-0.01757813,-0.3725586
506,-0.0625,0,-0.625,-0.5385742,0.2529297,0.8012695,0.1777344,-0.01757813,-0.3725586
507,-0.25,-0.125,-0.8125,-0.5385742,0.2607422,0.7978516,0.175293,-0.01367188,-0.3725586
509,-0.0625,-0.125,-1,-0.5424805,0.2529297,0.7900391,0.1787109,-0.01904297,-0.3740234
510,-0.3125,0.25,-1,-0.534668,0.2568359,0.7900391,0.1787109,-0.01904297,-0.3740234
512,-0.3125,-0.125,-0.9375,-0.534668,0.2490234,0.7939453,0.1762695,-0.01904297,-0.3725586
513,-0.5,0,-1,-0.534668,0.2490234,0.7939453,0.175293,-0.01367188,-0.3725586
515,-0.375,-0.125,-1.125,-0.534668,0.2490234,0.7978516,0.175293,-0.01367188,-0.3725586
516,0,-0.125,-0.875,-0.534668,0.2451172,0.8051758,0.1777344,-0.02001953,-0.3740234
518,-0.0625,0.0625,-0.8125,-0.5424805,0.2451172,0.8012695,0.1762695,-0.01660156,-0.3740234
519,0,-0.0625,-0.8125,-0.5463867,0.2451172,0.7978516,0.1762695,-0.01660156,-0.3740234
521,0.125,0.0625,-0.875,-0.5463867,0.2529297,0.8012695,0.1777344,-0.01513672,-0.3740234
522,0,0,-0.8125,-0.534668,0.2490234,0.7900391,0.1777344,-0.02294922,-0.3725586
524,0.125,-0.125,-0.8125,-0.5307617,0.2568359,0.7939453,0.1777344,-0.02294922,-0.3725586
525,-0.0625,0.25,-0.75,-0.5424805,0.2529297,0.7900391,0.175293,-0.01513672,-0.3740234
527,-0.0625,0.0625,-1,-0.5385742,0.2412109,0.7900391,0.1777344,-0.01513672,-0.3754883
528,0.1875,-0.0625,-0.8125,-0.5385742,0.2451172,0.7939453,0.1777344,-0.01513672,-0.3754883
530,0.0625,0.125,-0.75,-0.5385742,0.2529297,0.7939453,0.1787109,-0.02148438,-0.3740234
531,-0.0625,0.125,-0.8125,-0.5463867,0.2529297,0.7939453,0.175293,-0.01513672,-0.3740234
533,0.125,0,-0.75,-0.5385742,0.2451172,0.7939453,0.175293,-0.01513672,-0.3740234
534,0.0625,-0.125,-0.8125,-0.5424805,0.2451172,0.8051758,0.1777344,-0.01757813,-0.3725586
536,0,0.0625,-0.8125,-0.5385742,0.2529297,0.8012695,0.1777344,-0.02001953,-0.3754883
537,0,-0.0625,-0.625,-0.5385742,0.2451172,0.7861328,0.1777344,-0.02001953,-0.3754883
539,0,-0.0625,-0.625,-0.5424805,0.2451172,0.7900391,0.175293,-0.01367188,-0.3754883
540,0.25,-0.125,-0.8125,-0.5463867,0.2412109,0.8012695,0.1762695,-0.01904297,-0.3740234
542,0.1875,-0.125,-0.625,-0.5385742,0.2529297,0.7939453,0.1762695,-0.01904297,-0.3740234
543,0.0625,0.1875,-0.5625,-0.5463867,0.2529297,0.7783203,0.1777344,-0.01904297,-0.3740234
545,0,0.1875,-0.5,-0.5385742,0.2451172,0.7978516,0.1762695,-0.01367188,-0.3740234
546,0.1875,0.0625,-0.5625,-0.5463867,0.2412109,0.7939453,0.1762695,-0.01367188,-0.3740234
548,0.25,-0.125,-0.625,-0.5463867,0.2490234,0.7978516,0.1787109,-0.02001953,-0.3740234
549,0.1875,-0.0625,-0.5625,-0.5307617,0.2451172,0.7978516,0.1762695,-0.01757813,-0.3740234
551,0.25,0.1875,-0.625,-0.5424805,0.2490234,0.7939453,0.1762695,-0.01757813,-0.3740234
552,0.5,-0.125,-0.625,-0.5424805,0.2490234,0.7939453,0.1762695,-0.01269531,-0.3740234
554,0.3125,0,-0.5625,-0.5385742,0.2451172,0.7900391,0.1787109,-0.02148438,-0.3740234
555,0.3125,0,-0.625,-0.5385742,0.2451172,0.7900391,0.1787109,-0.02148438,-0.3740234
557,0.5625,0.0625,-0.5,-0.5424805,0.2451172,0.7978516,0.175293,-0.01660156,-0.3725586
558,0.3125,0,-0.5625,-0.5463867,0.2490234,0.7978516,0.1777344,-0.01367188,-0.3725586
560,0.5,0.125,-0.25,-0.5424805,0.2451172,0.8012695,0.1777344,-0.01367188,-0.3725586
561,0.5,-0.0625,-0.4375,-0.5385742,0.2451172,0.7900391,0.1762695,-0.02001953,-0.371582
563,0.625,0.3125,-0.25,-0.534668,0.2529297,0.7900391,0.175293,-0.01513672,-0.3740234
564,0.4375,0,-0.375,-0.5424805,0.2529297,0.7900391,0.175293,-0.01513672,-0.3740234
566,0.375,-0.0625,-0.3125,-0.534668,0.2529297,0.7900391,0.1777344,-0.01513672,-0.3725586
567,0.5625,0.1875,-0.6875,-0.5385742,0.2490234,0.8012695,0.1777344,-0.02148438,-0.3725586
569,0.3125,0.375,-0.5625,-0.5463867,0.2490234,0.7939453,0.1777344,-0.02148438,-0.3725586
570,0.25,0.0625,-0.5,-0.5424805,0.2568359,0.7939453,0.175293,-0.01513672,-0.3740234
572,0.1875,0,-0.625,-0.5424805,0.2529297,0.7900391,0.1787109,-0.01757813,-0.3725586
573,0.125,-0.0625,-0.75,-0.5385742,0.2529297,0.7939453,0.1787109,-0.01757813,-0.3725586
575,-0.0625,0,-0.5625,-0.5307617,0.2568359,0.7939453,0.1787109,-0.02001953,-0.3754883
577,0.0625,0.0625,-0.6875,-0.5424805,0.2529297,0.7861328,0.1738281,-0.01367188,-0.3725586
579,0,0,-0.75,-0.5385742,0.2490234,0.7822266,0.1738281,-0.01367188,-0.3725586
580,0.125,0.0625,-0.75,-0.5424805,0.2451172,0.7900391,0.1777344,-0.01757813,-0.3740234
582,-0.0625,-0.125,-1.0625,-0.5385742,0.2529297,0.7822266,0.1762695,-0.01904297,-0.3754883
583,0,-0.125,-0.8125,-0.5424805,0.2529297,0.7978516,0.1762695,-0.01904297,-0.3754883
585,-0.25,-0.0625,-0.875,-0.5385742,0.2529297,0.7978516,0.1762695,-0.01513672,-0.3725586
586,-0.1875,-0.0625,-0.8125,-0.5385742,0.2490234,0.7939453,0.1787109,-0.02001953,-0.3725586
588,0,-0.125,-0.9375,-0.5424805,0.2529297,0.7939453,0.1787109,-0.02001953,-0.3725586
589,-0.1875,0,-1.0625,-0.5385742,0.2451172,0.7900391,0.1777344,-0.01904297,-0.3740234
591,-0.25,0.25,-0.8125,-0.5385742,0.2529297,0.7939453,0.1738281,-0.01367188,-0.3740234
592,0,0.125,-0.8125,-0.5385742,0.2490234,0.7900391,0.1738281,-0.01367188,-0.3740234
594,0,-0.125,-0.8125,-0.5385742,0.2490234,0.7978516,0.1787109,-0.02001953,-0.3725586
595,0.125,-0.0625,-0.9375,-0.534668,0.2568359,0.7978516,0.175293,-0.01660156,-0.3740234
597,-0.0625,0,-0.8125,-0.5424805,0.2490234,0.7939453,0.175293,-0.01660156,-0.3740234
598,-0.1875,-0.0625,-0.75,-0.5385742,0.2490234,0.7978516,0.1762695,-0.01367188,-0.3725586
600,-0.0625,-0.125,-0.875,-0.5424805,0.2490234,0.7978516,0.1801758,-0.02148438,-0.3740234
601,-0.0625,0,-0.875,-0.550293,0.2451172,0.7939453,0.1801758,-0.02148438,-0.3740234
603,-0.125,0.125,-0.8125,-0.5385742,0.2529297,0.7744141,0.175293,-0.01757813,-0.3740234
604,-0.1875,0,-0.8125,-0.5385742,0.2529297,0.7900391,0.1787109,-0.01367188,-0.3725586
606,0,-0.125,-1,-0.5463867,0.2451172,0.7978516,0.1787109,-0.01367188,-0.3725586
607,0.0625,-0.1875,-0.8125,-0.5424805,0.2490234,0.7900391,0.1787109,-0.02001953,-0.371582
609,0,-0.25,-0.5625,-0.5385742,0.2412109,0.7900391,0.1738281,-0.01660156,-0.3725586
610,0,-0.125,-0.6875,-0.5463867,0.2412109,0.7978516,0.1738281,-0.01660156,-0.3725586
612,0,0,-0.875,-0.5463867,0.2490234,0.7900391,0.1762695,-0.01757813,-0.3725586
613,-0.25,-0.125,-0.875,-0.5385742,0.2451172,0.7900391,0.1777344,-0.02148438,-0.3740234
615,-0.1875,-0.1875,-0.875,-0.5424805,0.2490234,0.7939453,0.1777344,-0.02148438,-0.3740234
616,-0.0625,-0.125,-0.875,-0.5424805,0.2451172,0.7861328,0.175293,-0.01123047,-0.3740234
618,-0.1875,-0.125,-0.625,-0.534668,0.2490234,0.7978516,0.1762695,-0.01513672,-0.3725586
619,-0.125,-0.0625,-0.8125,-0.5385742,0.2490234,0.8051758,0.1762695,-0.01513672,-0.3725586
621,0.125,0,-0.8125,-0.5424805,0.2412109,0.7939453,0.1777344,-0.02001953,-0.3754883
622,-0.0625,-0.125,-0.875,-0.5463867,0.2451172,0.7900391,0.1738281,-0.01269531,-0.3740234
624,0,-0.25,-0.8125,-0.5424805,0.2490234,0.8051758,0.1738281,-0.01269531,-0.3740234
625,-0.0625,-0.125,-0.5625,-0.5385742,0.2490234,0.8012695,0.1777344,-0.01904297,-0.3725586
627,0.0625,-0.1875,-0.75,-0.5385742,0.2490234,0.7978516,0.1762695,-0.01904297,-0.3754883
628,0.125,-0.1875,-0.8125,-0.5463867,0.2490234,0.8051758,0.1762695,-0.01904297,-0.3754883
630,0,0,-0.8125,-0.5385742,0.2451172,0.7939453,0.1738281,-0.01269531,-0.3725586
631,0,0.125,-0.625,-0.5424805,0.2490234,0.7978516,0.1787109,-0.01904297,-0.3754883
633,-0.125,0,-0.5625,-0.5385742,0.2412109,0.7939453,0.1787109,-0.01904297,-0.3754883
634,0,-0.3125,-0.6875,-0.5385742,0.2451172,0.8012695,0.1762695,-0.01757813,-0.3740234
636,0,-0.25,-0.625,-0.5385742,0.2451172,0.7939453,0.175293,-0.01513672,-0.3740234
637,0,-0.1875,-0.75,-0.5463867,0.2490234,0.7978516,0.175293,-0.01513672,-0.3740234
639,-0.0625,0,-0.625,-0.5424805,0.2490234,0.7978516,0.1787109,-0.02001953,-0.3740234
640,-0.125,-0.75,-0.625,-0.5424805,0.2490234,0.8012695,0.1762695,-0.01513672,-0.3740234
642,0.125,0.4375,-0.8125,-0.5463867,0.2529297,0.8129883,0.1762695,-0.01513672,-0.3740234
643,-0.125,-0.25,-0.625,-0.5581055,0.2490234,0.7670898,0.1762695,-0.01367188,-0.3740234
645,0,-0.1875,-0.625,-0.5307617,0.2490234,0.8168945,0.1787109,-0.02148438,-0.3725586
646,0,0,-0.625,-0.5385742,0.2451172,0.7978516,0.1787109,-0.02148438,-0.3725586
648,0.125,-0.125,-0.75,-0.5424805,0.2490234,0.7978516,0.1738281,-0.01513672,-0.3754883
649,0,0,-0.5,-0.550293,0.2451172,0.7978516,0.1777344,-0.01367188,-0.3725586
651,-0.1875,-0.0625,-0.6875,-0.534668,0.2529297,0.7978516,0.1777344,-0.01367188,-0.3725586
652,-0.125,-0.125,-0.75,-0.5424805,0.2529297,0.7900391,0.1777344,-0.02148438,-0.3740234
654,-0.0625,-0.375,-0.5625,-0.5424805,0.2490234,0.7978516,0.175293,-0.01660156,-0.3754883
655,-0.1875,-0.0625,-0.625,-0.5424805,0.2451172,0.7900391,0.175293,-0.01660156,-0.3754883
657,-0.0625,0.125,-0.5,-0.5424805,0.2490234,0.7861328,0.1777344,-0.01904297,-0.3740234
658,-0.125,-0.125,-0.6875,-0.5424805,0.2451172,0.8012695,0.1777344,-0.02148438,-0.3740234
660,-0.0625,-0.3125,-0.625,-0.5385742,0.2451172,0.7978516,0.1777344,-0.02148438,-0.3740234
661,0,-0.25,-0.6875,-0.5385742,0.2529297,0.7939453,0.1762695,-0.01367188,-0.3740234
663,-0.0625,0,-0.5625,-0.5385742,0.2451172,0.7939453,0.1777344,-0.01757813,-0.3740234
664,-0.5625,-0.125,-0.6875,-0.5424805,0.2451172,0.7978516,0.1777344,-0.01757813,-0.3740234
666,-0.3125,-0.125,-0.5,-0.534668,0.2451172,0.7861328,0.1777344,-0.02001953,-0.3754883
667,0,-0.1875,-0.6875,-0.5424805,0.2490234,0.7939453,0.1762695,-0.01367188,-0.3754883
669,-0.0625,-0.125,-0.8125,-0.5424805,0.2451172,0.7978516,0.1762695,-0.01367188,-0.3754883
670,0,-0.125,-0.6875,-0.5385742,0.2490234,0.7978516,0.1787109,-0.02001953,-0.3725586
672,-0.25,0,-0.625,-0.5385742,0.2490234,0.7939453,0.1762695,-0.01904297,-0.3740234
675,0,0,-0.5625,-0.5424805,0.2451172,0.8051758,0.1762695,-0.01904297,-0.3740234
677,0.1875,-0.125,-0.625,-0.5424805,0.2412109,0.8012695,0.175293,-0.01367188,-0.3740234
678,0.125,0,-0.625,-0.5385742,0.2451172,0.7822266,0.1777344,-0.01904297,-0.3740234
680,0.375,0,-0.6875,-0.5424805,0.2490234,0.7939453,0.1777344,-0.01904297,-0.3740234
681,0.125,-0.125,-0.5,-0.5424805,0.2490234,0.7900391,0.175293,-0.01904297,-0.3740234
683,0.0625,0.1875,-0.5,-0.534668,0.2529297,0.7939453,0.1762695,-0.01367188,-0.3754883
684,0.0625,0,-0.5625,-0.5385742,0.2529297,0.7822266,0.1762695,-0.01367188,-0.3754883
686,0.1875,-0.0625,-0.75,-0.5385742,0.2568359,0.7939453,0.1762695,-0.02001953,-0.3725586
687,-0.0625,0,-0.5625,-0.534668,0.2568359,0.7861328,0.1738281,-0.01513672,-0.3725586
689,0.1875,-0.0625,-0.6875,-0.5424805,0.2412109,0.7939453,0.1738281,-0.01513672,-0.3725586
690,0.125,-0.25,-0.5,-0.5424805,0.2529297,0.7900391,0.1762695,-0.01513672,-0.3740234
692,0.0625,0.0625,-0.6875,-0.5424805,0.2490234,0.7822266,0.1787109,-0.02148438,-0.3754883
693,-0.25,-0.125,-0.6875,-0.5385742,0.2490234,0.8012695,0.1787109,-0.02148438,-0.3754883
695,-0.375,-0.1875,-0.6875,-0.5385742,0.2490234,0.7939453,0.1738281,-0.01367188,-0.3754883
696,0,-0.125,-0.6875,-0.5463867,0.2490234,0.7900391,0.1777344,-0.01660156,-0.3740234
698,-0.125,0,-0.6875,-0.5424805,0.2451172,0.7978516,0.1777344,-0.01660156,-0.3740234
699,0,-0.125,-0.625,-0.5424805,0.2412109,0.7939453,0.1777344,-0.02001953,-0.3740234
701,0,-0.125,-0.5625,-0.5424805,0.2412109,0.7900391,0.1738281,-0.01513672,-0.3740234
702,0.125,-0.1875,-0.75,-0.5424805,0.2412109,0.7939453,0.1738281,-0.01513672,-0.3740234
704,0.125,0,-0.625,-0.5424805,0.2451172,0.7861328,0.1777344,-0.01757813,-0.3740234
705,0.0625,0,-0.375,-0.5424805,0.2490234,0.7978516,0.1787109,-0.02001953,-0.3754883
707,0.0625,-0.0625,-0.625,-0.5385742,0.2490234,0.8012695,0.1787109,-0.02001953,-0.3754883
708,0.125,-0.125,-0.5,-0.5463867,0.2490234,0.7939453,0.175293,-0.01269531,-0.3740234
710,0.1875,-0.25,-0.625,-0.5385742,0.2490234,0.7978516,0.1762695,-0.02001953,-0.3740234
711,0.0625,0,-0.5,-0.534668,0.2568359,0.7939453,0.1762695,-0.02001953,-0.3740234
713,0.125,0.0625,-0.5,-0.5424805,0.2490234,0.7978516,0.1762695,-0.01904297,-0.3740234
714,-0.1875,-0.375,-0.9375,-0.5385742,0.2529297,0.8012695,0.1738281,-0.01367188,-0.3725586
716,0.0625,-0.125,-0.6875,-0.5424805,0.2490234,0.7939453,0.1738281,-0.01367188,-0.3725586
717,-0.125,0,-0.8125,-0.5463867,0.2490234,0.7978516,0.1777344,-0.02001953,-0.3740234
719,-0.1875,-0.25,-0.8125,-0.534668,0.2490234,0.8012695,0.1777344,-0.01757813,-0.3725586
720,-0.1875,-0.125,-0.75,-0.5424805,0.2490234,0.8012695,0.1777344,-0.01757813,-0.3725586
722,-0.125,-0.3125,-1.0625,-0.5424805,0.2529297,0.7900391,0.175293,-0.01269531,-0.3740234
723,-0.125,-0.375,-0.8125,-0.5424805,0.2529297,0.7939453,0.1777344,-0.02294922,-0.3740234
725,-0.375,0,-0.75,-0.5385742,0.2490234,0.7978516,0.1777344,-0.02294922,-0.3740234
726,-0.4375,-0.3125,-0.875,-0.5424805,0.2412109,0.7939453,0.1738281,-0.01660156,-0.3740234
728,-0.4375,-0.5,-0.8125,-0.534668,0.2412109,0.7939453,0.1762695,-0.01367188,-0.3725586
729,-0.1875,0.0625,-0.6875,-0.5424805,0.2412109,0.7939453,0.1762695,-0.01367188,-0.3725586
731,-0.0625,-0.5625,-0.875,-0.5463867,0.2451172,0.7861328,0.1801758,-0.02148438,-0.3725586
732,-0.0625,0.0625,-0.6875,-0.5424805,0.2412109,0.8012695,0.175293,-0.01660156,-0.3754883
734,-0.25,-0.4375,-0.5625,-0.550293,0.2412109,0.7900391,0.175293,-0.01660156,-0.3754883
735,0.375,0,-0.875,-0.5385742,0.2373047,0.7978516,0.1762695,-0.01513672,-0.3740234
737,0.0625,-0.125,-0.5,-0.5463867,0.2451172,0.7978516,0.1777344,-0.02148438,-0.3740234
738,0.125,-0.1875,-0.5,-0.5385742,0.2529297,0.7900391,0.1777344,-0.02148438,-0.3740234
740,0,-0.125,-0.625,-0.5385742,0.2451172,0.7939453,0.175293,-0.01513672,-0.3740234
741,-0.1875,-0.0625,-0.5625,-0.534668,0.2451172,0.8012695,0.1762695,-0.01757813,-0.3725586
743,-0.125,0.0625,-0.4375,-0.5424805,0.2490234,0.7978516,0.1762695,-0.01757813,-0.3725586
744,-0.0625,-0.25,-0.75,-0.5385742,0.2529297,0.7900391,0.1777344,-0.01904297,-0.3725586
746,-0.0625,-0.1875,-0.4375,-0.5385742,0.2568359,0.7939453,0.1777344,-0.01367188,-0.3754883
747,-0.1875,-0.1875,-0.5625,-0.5424805,0.2490234,0.7939453,0.1777344,-0.01367188,-0.3754883
749,-0.4375,-0.0625,-0.75,-0.534668,0.2490234,0.8012695,0.1787109,-0.01904297,-0.3725586
750,-0.5,-0.125,-0.6875,-0.5463867,0.2412109,0.7861328,0.1777344,-0.02001953,-0.3754883
752,-0.3125,-0.1875,-0.625,-0.5385742,0.2451172,0.7900391,0.1777344,-0.02001953,-0.3754883
753,0.0625,-0.3125,-0.6875,-0.5463867,0.2451172,0.8012695,0.1762695,-0.01367188,-0.3754883
755,-0.1875,-0.125,-0.6875,-0.5385742,0.2412109,0.8012695,0.1787109,-0.01904297,-0.3740234
756,-0.5,0,-0.5625,-0.5424805,0.2451172,0.7978516,0.1787109,-0.01904297,-0.3740234
758,-0.0625,-0.1875,-0.5,-0.5424805,0.2412109,0.7978516,0.1762695,-0.01757813,-0.3754883
759,0,-0.1875,-0.5,-0.534668,0.2412109,0.7978516,0.1738281,-0.01367188,-0.3740234
761,0.1875,-0.125,-0.5,-0.5385742,0.2490234,0.7939453,0.1738281,-0.01367188,-0.3740234
762,-0.1875,-0.1875,-0.5625,-0.5385742,0.2529297,0.7939453,0.1787109,-0.01904297,-0.3725586
764,-0.125,-0.5625,-0.6875,-0.5385742,0.2568359,0.7978516,0.1762695,-0.01660156,-0.3740234
765,-0.3125,-0.5625,-0.75,-0.5424805,0.2568359,0.7861328,0.1762695,-0.01660156,-0.3740234
767,-0.625,-0.25,-0.75,-0.5385742,0.2529297,0.7939453,0.1762695,-0.01269531,-0.3725586
768,-0.875,-0.4375,-0.6875,-0.5424805,0.2451172,0.7939453,0.1787109,-0.02001953,-0.3725586
770,-0.75,-0.75,-1,-0.534668,0.2490234,0.7900391,0.1787109,-0.02001953,-0.3725586
772,-0.75,-0.625,-0.8125,-0.5463867,0.2451172,0.7978516,0.1762695,-0.01367188,-0.3725586
774,-0.75,-0.625,-0.875,-0.5385742,0.2490234,0.7900391,0.1777344,-0.01513672,-0.3740234
775,-0.8125,-0.8125,-0.875,-0.5424805,0.2529297,0.7939453,0.1777344,-0.01513672,-0.3740234
777,-0.75,-0.625,-0.9375,-0.534668,0.2529297,0.7939453,0.1777344,-0.02001953,-0.3740234
778,-0.9375,-0.375,-0.8125,-0.5385742,0.2451172,0.7939453,0.1762695,-0.01513672,-0.3754883
780,-0.6875,-0.75,-0.875,-0.5424805,0.2529297,0.7978516,0.1762695,-0.01513672,-0.3754883
781,-0.5,-0.4375,-0.6875,-0.5463867,0.2373047,0.7978516,0.1762695,-0.01660156,-0.3725586
783,-0.4375,-0.4375,-0.8125,-0.534668,0.2529297,0.7939453,0.1762695,-0.02001953,-0.3754883
784,-0.3125,-0.1875,-0.8125,-0.534668,0.2490234,0.7939453,0.1762695,-0.02001953,-0.3754883
786,-0.875,-0.125,-0.8125,-0.5307617,0.2568359,0.7939453,0.1738281,-0.01367188,-0.3725586
787,-0.8125,-0.125,-0.9375,-0.534668,0.2490234,0.8012695,0.1762695,-0.01904297,-0.3740234
789,-0.625,-0.4375,-0.875,-0.5307617,0.2490234,0.7939453,0.1762695,-0.01904297,-0.3740234
790,-0.4375,-0.0625,-1.0625,-0.5424805,0.2490234,0.8012695,0.175293,-0.02001953,-0.3740234
792,-0.375,-0.125,-0.9375,-0.5424805,0.2451172,0.7978516,0.1738281,-0.01123047,-0.3740234
793,-0.375,-0.25,-0.9375,-0.5385742,0.2451172,0.7939453,0.1738281,-0.01123047,-0.3740234
795,-0.625,-0.0625,-1.125,-0.5307617,0.2451172,0.8012695,0.1777344,-0.01904297,-0.3725586
796,-0.625,0.25,-1,-0.5424805,0.2412109,0.7900391,0.1762695,-0.01904297,-0.3740234
798,-0.3125,0,-1,-0.534668,0.2373047,0.7978516,0.1762695,-0.01904297,-0.3740234
799,-0.5,0,-0.9375,-0.534668,0.2529297,0.8051758,0.175293,-0.01123047,-0.3740234
801,-0.25,-0.125,-0.875,-0.5385742,0.2373047,0.7939453,0.1777344,-0.01904297,-0.3725586
802,-0.3125,-0.0625,-0.875,-0.5385742,0.2412109,0.7900391,0.1777344,-0.01904297,-0.3725586
804,-0.125,0,-0.9375,-0.5424805,0.2451172,0.8012695,0.175293,-0.01513672,-0.3725586
805,-0.25,0.0625,-0.875,-0.534668,0.2412109,0.7978516,0.1762695,-0.01123047,-0.3725586
807,-0.3125,0.125,-0.875,-0.5385742,0.2412109,0.7939453,0.1762695,-0.01123047,-0.3725586
808,-0.1875,-0.0625,-0.8125,-0.5307617,0.2490234,0.7900391,0.1777344,-0.01904297,-0.3740234
810,0,-0.125,-0.9375,-0.5385742,0.2490234,0.7978516,0.175293,-0.01513672,-0.3725586
811,-0.3125,0.0625,-0.8125,-0.5463867,0.2412109,0.7978516,0.175293,-0.01513672,-0.3725586
813,0,0.125,-0.8125,-0.5385742,0.2412109,0.8012695,0.175293,-0.01513672,-0.3725586
814,-0.125,0,-0.6875,-0.534668,0.2373047,0.7900391,0.1777344,-0.02001953,-0.3740234
816,0.0625,-0.0625,-0.875,-0.5385742,0.2451172,0.7978516,0.1777344,-0.02001953,-0.3740234
817,0.125,0,-0.6875,-0.5385742,0.2451172,0.7900391,0.1738281,-0.01367188,-0.3754883
819,0.0625,0,-0.75,-0.534668,0.2451172,0.8051758,0.1762695,-0.01660156,-0.3740234
820,0.0625,0.125,-0.75,-0.534668,0.2451172,0.7939453,0.1762695,-0.01660156,-0.3740234
822,0.125,0.1875,-0.75,-0.5385742,0.2451172,0.7978516,0.1777344,-0.02148438,-0.3740234
823,0.25,0.0625,-0.6875,-0.5385742,0.2412109,0.7900391,0.175293,-0.01269531,-0.3725586
825,0.375,0.25,-0.5,-0.534668,0.2412109,0.7939453,0.175293,-0.01269531,-0.3725586
826,0.3125,0.125,-0.6875,-0.5385742,0.2451172,0.8012695,0.1762695,-0.01513672,-0.3754883
828,0.25,0,-0.5625,-0.5385742,0.2529297,0.8012695,0.1787109,-0.01904297,-0.3740234
829,0.125,0.0625,-0.6875,-0.5385742,0.2529297,0.7939453,0.1787109,-0.01904297,-0.3740234
831,0.0625,0,-0.5,-0.5385742,0.2490234,0.7939453,0.175293,-0.01513672,-0.3754883
832,-0.0625,0.25,-0.75,-0.534668,0.2490234,0.7978516,0.1787109,-0.01757813,-0.3725586
834,0,0.1875,-0.8125,-0.5385742,0.2412109,0.809082,0.1787109,-0.01757813,-0.3725586
835,0.125,0,-0.8125,-0.5385742,0.2451172,0.7939453,0.1762695,-0.01904297,-0.3740234
837,0.25,0.3125,-0.6875,-0.5385742,0.2451172,0.7861328,0.1738281,-0.01367188,-0.3740234
838,0.25,0.3125,-0.75,-0.5385742,0.2490234,0.7861328,0.1738281,-0.01367188,-0.3740234
840,-0.0625,0.1875,-0.75,-0.5424805,0.2451172,0.7978516,0.1777344,-0.01904297,-0.3725586
841,0.1875,0.1875,-0.625,-0.5385742,0.2490234,0.8051758,0.1762695,-0.01660156,-0.3740234
843,0.125,0,-0.8125,-0.5424805,0.2490234,0.7978516,0.1762695,-0.01660156,-0.3740234
844,0,0.0625,-0.625,-0.534668,0.2529297,0.7939453,0.175293,-0.01123047,-0.3725586
846,-0.0625,0.1875,-0.625,-0.5385742,0.2451172,0.7978516,0.1787109,-0.02148438,-0.3725586
847,-0.125,0.125,-0.8125,-0.5385742,0.2412109,0.7978516,0.1787109,-0.02148438,-0.3725586
849,-0.125,0,-0.75,-0.5424805,0.2412109,0.7939453,0.1738281,-0.01513672,-0.3740234
850,0.0625,0.125,-0.875,-0.5424805,0.2412109,0.8051758,0.175293,-0.01123047,-0.3725586
852,0.0625,0,-0.875,-0.5424805,0.2490234,0.8012695,0.175293,-0.01123047,-0.3725586
853,0,0.25,-0.875,-0.534668,0.2490234,0.7978516,0.1787109,-0.02148438,-0.3740234
855,-0.0625,0,-0.6875,-0.5424805,0.2529297,0.7978516,0.175293,-0.01269531,-0.3740234
856,0.0625,0.5625,-0.6875,-0.5307617,0.2412109,0.7900391,0.175293,-0.01269531,-0.3740234
858,0.1875,0.375,-0.5625,-0.5385742,0.2412109,0.7939453,0.1777344,-0.01513672,-0.3740234
859,0.3125,0.3125,-0.5,-0.5385742,0.2451172,0.8012695,0.1762695,-0.02001953,-0.3754883
861,0.5,0,-0.625,-0.5385742,0.2451172,0.8051758,0.1762695,-0.02001953,-0.3754883
862,0.375,0.3125,-0.5,-0.5424805,0.2451172,0.7978516,0.1738281,-0.01269531,-0.371582
864,0.4375,0.1875,-0.375,-0.5385742,0.2412109,0.7939453,0.1787109,-0.01660156,-0.3740234
865,0.75,0.3125,-0.4375,-0.534668,0.2412109,0.7978516,0.1787109,-0.01660156,-0.3740234
867,0.625,0.5625,-0.25,-0.5424805,0.2451172,0.7939453,0.1777344,-0.02001953,-0.3740234
870,0.75,0.4375,-0.375,-0.5385742,0.2451172,0.7978516,0.175293,-0.01367188,-0.3725586
872,0.5625,0.5625,-0.3125,-0.534668,0.2451172,0.7939453,0.175293,-0.01367188,-0.3725586
873,0.75,0.125,-0.5625,-0.534668,0.2412109,0.7978516,0.1777344,-0.01757813,-0.3725586
875,0.6875,0.25,-0.5,-0.534668,0.2568359,0.8012695,0.1762695,-0.02001953,-0.3740234
876,0.5,0.1875,-0.5625,-0.5385742,0.2568359,0.7900391,0.1762695,-0.02001953,-0.3740234
878,0.25,0,-0.6875,-0.5385742,0.2568359,0.7900391,0.1762695,-0.01269531,-0.3725586
879,0.1875,0.25,-0.5,-0.5385742,0.2490234,0.7900391,0.1777344,-0.01904297,-0.3725586
881,0.125,0.3125,-0.75,-0.5307617,0.2490234,0.7939453,0.1777344,-0.01904297,-0.3725586
882,0.125,0.125,-0.5625,-0.534668,0.2412109,0.7978516,0.1762695,-0.01904297,-0.3740234
884,0.25,0,-0.625,-0.5385742,0.2451172,0.7939453,0.175293,-0.01269531,-0.3740234
885,0.125,0.0625,-0.6875,-0.5385742,0.2451172,0.7939453,0.175293,-0.01269531,-0.3740234
887,0.125,0.25,-0.5,-0.534668,0.2412109,0.7939453,0.1787109,-0.01660156,-0.3740234
888,0.3125,0.375,-0.5625,-0.5463867,0.2412109,0.8012695,0.175293,-0.01757813,-0.3740234
890,0.375,0.3125,-0.4375,-0.5385742,0.2373047,0.7900391,0.175293,-0.01757813,-0.3740234
891,0.6875,0.1875,-0.5,-0.5385742,0.2490234,0.8012695,0.175293,-0.01367188,-0.3725586
893,0.8125,0.25,-0.25,-0.5385742,0.2529297,0.8012695,0.1777344,-0.01904297,-0.3725586
894,0.6875,0.25,-0.375,-0.5424805,0.2451172,0.7939453,0.1777344,-0.01904297,-0.3725586
896,0.6875,0.375,-0.375,-0.5424805,0.2451172,0.7939453,0.1762695,-0.01367188,-0.3725586
897,0.875,0.3125,-0.25,-0.5385742,0.2451172,0.8012695,0.175293,-0.01513672,-0.3725586
899,0.8125,0.25,-0.1875,-0.5385742,0.2529297,0.7978516,0.175293,-0.01513672,-0.3725586
900,1,0.5,-0.4375,-0.5424805,0.2529297,0.809082,0.1787109,-0.02001953,-0.371582
902,0.6875,0.5,-0.3125,-0.5424805,0.2490234,0.7900391,0.175293,-0.01513672,-0.3754883
903,0.625,0.1875,-0.4375,-0.5424805,0.2451172,0.7900391,0.175293,-0.01513672,-0.3754883
905,0.625,0.3125,-0.25,-0.5385742,0.2529297,0.7900391,0.1777344,-0.01513672,-0.3740234
906,0.75,0.4375,-0.375,-0.5385742,0.2412109,0.8012695,0.1801758,-0.02001953,-0.3740234
908,0.5625,0.4375,-0.375,-0.5385742,0.2568359,0.7939453,0.1801758,-0.02001953,-0.3740234
909,0.625,0.25,-0.3125,-0.5424805,0.2412109,0.7978516,0.1738281,-0.01269531,-0.3725586
911,0.75,0.25,-0.375,-0.5424805,0.2412109,0.7939453,0.1762695,-0.01757813,-0.3725586
912,0.8125,0.125,-0.3125,-0.5424805,0.2451172,0.7939453,0.1762695,-0.01757813,-0.3725586
914,0.6875,0.125,-0.1875,-0.5463867,0.2451172,0.7978516,0.1762695,-0.02001953,-0.3740234
915,0.9375,0,-0.1875,-0.5385742,0.2451172,0.7939453,0.175293,-0.01513672,-0.3740234
917,1,0.375,-0.1875,-0.5385742,0.2451172,0.7900391,0.175293,-0.01513672,-0.3740234
918,0.625,0.125,-0.25,-0.5424805,0.2373047,0.7939453,0.1801758,-0.01904297,-0.371582
920,1,0.4375,-0.1875,-0.5463867,0.2451172,0.7978516,0.1787109,-0.01904297,-0.3725586
921,1.0625,0,0,-0.5385742,0.2490234,0.7978516,0.1787109,-0.01904297,-0.3725586
923,1.0625,0.0625,-0.0625,-0.5424805,0.2451172,0.7939453,0.175293,-0.01269531,-0.3740234
924,0.8125,0.5,-0.0625,-0.5424805,0.2490234,0.7900391,0.1787109,-0.01904297,-0.3740234
926,1.125,0.3125,-0.125,-0.5424805,0.2451172,0.7939453,0.1787109,-0.01904297,-0.3740234
927,0.8125,0,-0.125,-0.5424805,0.2451172,0.7861328,0.1777344,-0.01757813,-0.3740234
929,0.9375,0.1875,-0.3125,-0.5424805,0.2451172,0.8012695,0.1738281,-0.01367188,-0.3725586
930,1,0.25,0,-0.5463867,0.2451172,0.7939453,0.1738281,-0.01367188,-0.3725586
932,0.875,0,0,-0.5385742,0.2490234,0.7900391,0.1787109,-0.02148438,-0.371582
933,0.8125,0.125,-0.3125,-0.5463867,0.2490234,0.8051758,0.1762695,-0.01660156,-0.3725586
935,0.6875,0.0625,0,-0.5463867,0.2373047,0.8012695,0.1762695,-0.01660156,-0.3725586
936,0.9375,-0.0625,-0.0625,-0.5424805,0.2451172,0.7900391,0.175293,-0.01367188,-0.3725586
938,1.25,0.0625,-0.125,-0.5424805,0.2490234,0.7861328,0.1787109,-0.02001953,-0.3725586
939,0.6875,0.3125,-0.0625,-0.5463867,0.2529297,0.7939453,0.1787109,-0.02001953,-0.3725586
941,0.625,0.0625,-0.0625,-0.5385742,0.2529297,0.7939453,0.1777344,-0.01367188,-0.3725586
942,0.6875,0,-0.125,-0.5424805,0.2529297,0.7939453,0.1777344,-0.01660156,-0.371582
944,0.9375,0.25,-0.125,-0.5385742,0.2490234,0.7939453,0.1777344,-0.01660156,-0.371582
945,0.8125,0.125,-0.1875,-0.5424805,0.2451172,0.8012695,0.1787109,-0.02001953,-0.3740234
947,0.875,0.0625,-0.1875,-0.5424805,0.2451172,0.7978516,0.175293,-0.01367188,-0.3725586
948,0.9375,0.25,-0.125,-0.5424805,0.2451172,0.7861328,0.175293,-0.01367188,-0.3725586
950,0.625,0.25,-0.125,-0.5463867,0.2529297,0.7900391,0.1777344,-0.01660156,-0.371582
951,0.5625,0.125,-0.375,-0.5424805,0.2490234,0.7900391,0.1787109,-0.02148438,-0.3754883
953,0.5625,0,-0.0625,-0.534668,0.2451172,0.7939453,0.1787109,-0.02148438,-0.3754883
954,0.8125,0,-0.3125,-0.550293,0.2451172,0.7939453,0.175293,-0.01367188,-0.3740234
956,0.4375,0.125,-0.375,-0.5424805,0.2490234,0.7900391,0.1787109,-0.01904297,-0.3740234
957,0.5625,-0.0625,-0.375,-0.5385742,0.2568359,0.7900391,0.1787109,-0.01904297,-0.3740234
959,0.4375,-0.125,-0.1875,-0.5463867,0.2490234,0.7900391,0.1762695,-0.01904297,-0.3740234
960,0.3125,0,-0.375,-0.5385742,0.2490234,0.7900391,0.1762695,-0.01367188,-0.3754883
962,0.25,-0.25,-0.4375,-0.5385742,0.2490234,0.7978516,0.1762695,-0.01367188,-0.3754883
963,0.3125,-0.3125,-0.4375,-0.5463867,0.2490234,0.7900391,0.1787109,-0.02001953,-0.3740234
965,0.3125,-0.1875,-0.5625,-0.5385742,0.2490234,0.7900391,0.1777344,-0.01904297,-0.3725586
967,0.1875,-0.1875,-0.4375,-0.5424805,0.2490234,0.7978516,0.1777344,-0.01904297,-0.3725586
969,0.125,0,-0.5,-0.5385742,0.2490234,0.7861328,0.1762695,-0.01123047,-0.3725586
970,0.1875,-0.125,-0.3125,-0.5424805,0.2490234,0.7900391,0.1787109,-0.02148438,-0.3740234
972,0.0625,0,-0.4375,-0.5385742,0.2490234,0.8012695,0.1787109,-0.02148438,-0.3740234
973,0.25,-0.1875,-0.375,-0.5424805,0.2490234,0.7939453,0.1777344,-0.01757813,-0.3725586
975,0.3125,-0.125,-0.375,-0.5385742,0.2490234,0.7939453,0.175293,-0.01269531,-0.3740234
976,0.25,-0.0625,-0.375,-0.5385742,0.2529297,0.7978516,0.175293,-0.01269531,-0.3740234
978,0,0.0625,-0.375,-0.5424805,0.2490234,0.7900391,0.1801758,-0.02148438,-0.371582
979,0.125,0,-0.25,-0.5424805,0.2373047,0.7978516,0.175293,-0.01660156,-0.3740234
981,0.5625,-0.125,-0.375,-0.5385742,0.2412109,0.8012695,0.175293,-0.01660156,-0.3740234
982,0.4375,-0.125,-0.3125,-0.5463867,0.2490234,0.8012695,0.1762695,-0.01513672,-0.371582
984,0.375,0,-0.3125,-0.5424805,0.2490234,0.7939453,0.1801758,-0.02294922,-0.3740234
985,0.5,0,-0.25,-0.5463867,0.2451172,0.8012695,0.1801758,-0.02294922,-0.3740234
987,0.25,-0.125,-0.25,-0.5385742,0.2490234,0.7900391,0.1738281,-0.01269531,-0.3725586
988,0.1875,-0.25,-0.3125,-0.5463867,0.2568359,0.8012695,0.1762695,-0.01660156,-0.3725586
990,0.3125,-0.3125,-0.375,-0.5424805,0.2529297,0.7900391,0.1762695,-0.01660156,-0.3725586
991,0.125,-0.375,-0.3125,-0.534668,0.2529297,0.7900391,0.1777344,-0.02148438,-0.3725586
993,0,-0.25,-0.625,-0.5424805,0.2490234,0.7900391,0.1738281,-0.01367188,-0.3725586
994,-0.0625,-0.1875,-0.5625,-0.5463867,0.2490234,0.7900391,0.1738281,-0.01367188,-0.3725586
996,-0.0625,-0.4375,-0.4375,-0.5463867,0.2529297,0.7900391,0.1777344,-0.01757813,-0.371582
997,0.0625,-0.375,-0.4375,-0.5385742,0.2529297,0.7861328,0.1787109,-0.01904297,-0.3725586
999,0,-0.25,-0.625,-0.5385742,0.2529297,0.7900391,0.1787109,-0.01904297,-0.3725586
1000,-0.25,-0.5,-0.4375,-0.534668,0.2568359,0.7939453,0.175293,-0.01367188,-0.3725586
1002,-0.375,-0.3125,-0.5625,-0.5424805,0.2490234,0.7978516,0.1777344,-0.02001953,-0.3740234
1003,-0.25,-0.5,-0.6875,-0.5424805,0.2451172,0.8051758,0.1777344,-0.02001953,-0.3740234
1005,-0.1875,-0.25,-0.4375,-0.5385742,0.2412109,0.7978516,0.1777344,-0.01904297,-0.3725586
1006,-0.25,-0.25,-0.625,-0.5424805,0.2490234,0.8012695,0.1738281,-0.01367188,-0.3740234
1008,0,-0.375,-0.5,-0.5463867,0.2490234,0.7978516,0.1738281,-0.01367188,-0.3740234
1009,0,-0.25,-0.5625,-0.5424805,0.2451172,0.7900391,0.1787109,-0.02001953,-0.3725586
1011,0,-0.25,-0.5625,-0.5424805,0.2490234,0.7861328,0.1762695,-0.01904297,-0.3725586
1012,0,-0.4375,-0.5625,-0.550293,0.2451172,0.7978516,0.1762695,-0.01904297,-0.3725586
1014,0,-0.25,-0.5625,-0.5424805,0.2490234,0.7900391,0.175293,-0.01367188,-0.371582
1015,0,-0.625,-0.3125,-0.5424805,0.2490234,0.7939453,0.1787109,-0.02001953,-0.3725586
1017,0,-0.4375,-0.5625,-0.5424805,0.2373047,0.7939453,0.1787109,-0.02001953,-0.3725586
1018,0.0625,-0.1875,-0.4375,-0.550293,0.2490234,0.7900391,0.175293,-0.01513672,-0.3725586
1020,0.0625,-0.5625,-0.5,-0.534668,0.2529297,0.7900391,0.175293,-0.01513672,-0.3740234
1021,-0.3125,-0.5,-0.4375,-0.5385742,0.2490234,0.8012695,0.175293,-0.01513672,-0.3740234
1023,-0.3125,-0.4375,-0.6875,-0.5424805,0.2451172,0.7900391,0.1787109,-0.02001953,-0.3740234
1024,-0.1875,-0.1875,-0.5,-0.5385742,0.2412109,0.7822266,0.1738281,-0.01367188,-0.3740234
1026,-0.1875,-0.25,-0.6875,-0.5385742,0.2490234,0.7900391,0.1738281,-0.01367188,-0.3740234
1027,-0.25,-0.3125,-0.8125,-0.5385742,0.2490234,0.7978516,0.1762695,-0.01660156,-0.3740234
1029,-0.4375,-0.625,-0.5,-0.5385742,0.2451172,0.7939453,0.1777344,-0.02001953,-0.3740234
1030,-0.4375,-0.625,-0.6875,-0.5424805,0.2490234,0.7900391,0.1777344,-0.02001953,-0.3740234
1032,-0.4375,-0.4375,-0.625,-0.5463867,0.2373047,0.8012695,0.1738281,-0.01513672,-0.3740234
1033,-0.25,-0.5,-0.625,-0.5385742,0.2412109,0.7978516,0.1777344,-0.01513672,-0.3740234
1035,-0.125,-0.4375,-0.4375,-0.5424805,0.2412109,0.8012695,0.1777344,-0.01513672,-0.3740234
1036,0,-0.5625,-0.4375,-0.5385742,0.2490234,0.7978516,0.1762695,-0.02001953,-0.3740234
1038,-0.0625,-0.3125,-0.625,-0.534668,0.2490234,0.7939453,0.175293,-0.01367188,-0.3740234
1039,-0.125,-0.3125,-0.4375,-0.5385742,0.2490234,0.7978516,0.175293,-0.01367188,-0.3740234
1041,0,-0.4375,-0.5,-0.5424805,0.2451172,0.7900391,0.1787109,-0.01904297,-0.371582
1042,0.1875,-0.1875,-0.4375,-0.5463867,0.2412109,0.7978516,0.1777344,-0.01904297,-0.3754883
1044,-0.0625,-0.25,-0.3125,-0.5424805,0.2451172,0.8012695,0.1777344,-0.01904297,-0.3754883
1045,0.125,-0.1875,-0.3125,-0.534668,0.2529297,0.7900391,0.1762695,-0.01269531,-0.3725586
1047,0.0625,-0.3125,-0.4375,-0.5385742,0.2490234,0.7900391,0.1787109,-0.01904297,-0.3725586
1048,0,-0.25,-0.3125,-0.5385742,0.2451172,0.7978516,0.1787109,-0.01904297,-0.3725586
1050,0.125,-0.125,-0.5625,-0.5424805,0.2451172,0.7978516,0.1777344,-0.01904297,-0.3740234
1051,0.0625,-0.125,-0.375,-0.5385742,0.2490234,0.7978516,0.1738281,-0.01123047,-0.3725586
1053,0.125,-0.3125,-0.375,-0.5463867,0.2529297,0.7939453,0.1738281,-0.01123047,-0.3725586
1054,0.125,-0.125,-0.3125,-0.5385742,0.2490234,0.7978516,0.1777344,-0.02148438,-0.3725586
1056,0,0.0625,-0.4375,-0.5463867,0.2490234,0.7900391,0.1762695,-0.01757813,-0.3725586
1057,0.125,-0.25,-0.5,-0.5385742,0.2529297,0.8051758,0.1762695,-0.01757813,-0.3725586
1059,0.0625,-0.125,-0.625,-0.534668,0.2490234,0.8051758,0.1762695,-0.01513672,-0.3740234
1060,0.1875,-0.3125,-0.25,-0.5463867,0.2412109,0.7900391,0.1777344,-0.02001953,-0.3725586
1062,0.25,-0.0625,-0.25,-0.5463867,0.2451172,0.7978516,0.1777344,-0.02001953,-0.3725586
1065,0.1875,-0.0625,-0.25,-0.5385742,0.2451172,0.7939453,0.175293,-0.01513672,-0.3740234
1067,0.375,-0.125,-0.125,-0.5385742,0.2373047,0.7978516,0.175293,-0.01367188,-0.3725586
1068,0.5,-0.25,-0.25,-0.5424805,0.2451172,0.7939453,0.175293,-0.01367188,-0.3725586
1070,0.375,-0.0625,-0.125,-0.5424805,0.2451172,0.7939453,0.1777344,-0.02148438,-0.3725586
1071,0.375,0.0625,-0.125,-0.5385742,0.2529297,0.7939453,0.1762695,-0.01513672,-0.3740234
1073,0.4375,0.0625,-0.125,-0.5385742,0.2529297,0.7900391,0.1762695,-0.01513672,-0.3740234
1074,0.25,0,-0.1875,-0.534668,0.2529297,0.7939453,0.1762695,-0.01660156,-0.3725586
1076,0.3125,0,0,-0.5424805,0.2529297,0.7939453,0.1787109,-0.02001953,-0.3740234
1077,0.4375,-0.0625,-0.3125,-0.534668,0.2529297,0.7939453,0.1787109,-0.02001953,-0.3740234
1079,0.1875,-0.0625,-0.3125,-0.534668,0.2607422,0.7900391,0.1738281,-0.01269531,-0.3725586
1080,0.125,-0.0625,-0.3125,-0.5385742,0.2607422,0.7939453,0.1787109,-0.01904297,-0.3725586
1082,0.1875,-0.125,-0.4375,-0.5385742,0.2568359,0.7978516,0.1787109,-0.01904297,-0.3725586
1083,0.125,0.0625,-0.5,-0.534668,0.2529297,0.7900391,0.1777344,-0.01904297,-0.3725586
1085,0.125,-0.0625,-0.5,-0.5424805,0.2451172,0.7978516,0.1762695,-0.01513672,-0.3740234
1086,0.1875,-0.0625,-0.375,-0.5385742,0.2451172,0.7939453,0.1762695,-0.01513672,-0.3740234
1088,0.3125,0,-0.375,-0.5385742,0.2451172,0.7978516,0.1777344,-0.01904297,-0.3725586
1089,0.375,0.1875,-0.375,-0.534668,0.2451172,0.7978516,0.1762695,-0.01757813,-0.3725586
1091,0,0,-0.4375,-0.5424805,0.2529297,0.7978516,0.1762695,-0.01757813,-0.3725586
1092,0.25,-0.0625,-0.4375,-0.5385742,0.2412109,0.7978516,0.1762695,-0.01269531,-0.3725586
1094,0.25,0.1875,-0.375,-0.5385742,0.2451172,0.7978516,0.1787109,-0.01904297,-0.3740234
1095,0.375,0.125,-0.5,-0.534668,0.2529297,0.7900391,0.1787109,-0.01904297,-0.3740234
1097,0.125,0.125,-0.375,-0.5424805,0.2412109,0.7978516,0.1762695,-0.01660156,-0.3725586
1098,0.4375,-0.125,-0.25,-0.5424805,0.2451172,0.8012695,0.1762695,-0.01269531,-0.3725586
1100,0.4375,0,-0.3125,-0.5385742,0.2529297,0.7900391,0.1762695,-0.01269531,-0.3725586
1101,0.1875,0.375,-0.375,-0.5385742,0.2529297,0.8012695,0.1787109,-0.02001953,-0.3725586
1103,0.1875,0.0625,-0.5,-0.5424805,0.2490234,0.7939453,0.1762695,-0.01660156,-0.3725586
1104,0.125,0,-0.5625,-0.5385742,0.2529297,0.7861328,0.1762695,-0.01660156,-0.3725586
1106,0.125,0,-0.5,-0.5424805,0.2490234,0.7822266,0.1762695,-0.01513672,-0.3725586
1107,0.125,0,-0.5,-0.5424805,0.2529297,0.7939453,0.1777344,-0.02001953,-0.3725586
1109,-0.0625,0.0625,-0.5625,-0.534668,0.2529297,0.7978516,0.1777344,-0.02001953,-0.3725586
1110,0,0,-0.625,-0.5385742,0.2529297,0.7939453,0.175293,-0.01513672,-0.3740234
1112,0.125,0.0625,-0.5625,-0.5385742,0.2490234,0.7978516,0.1762695,-0.01660156,-0.3740234
1113,0,0.1875,-0.5625,-0.5424805,0.2451172,0.7978516,0.1762695,-0.01660156,-0.3740234
1115,0,0.0625,-0.5,-0.5385742,0.2412109,0.8012695,0.1777344,-0.02001953,-0.3725586
1116,0.0625,0.0625,-0.5,-0.5424805,0.2412109,0.7939453,0.1728516,-0.01513672,-0.3740234
1118,0.1875,0,-0.4375,-0.534668,0.2529297,0.7939453,0.1728516,-0.01513672,-0.3740234
1119,0.125,-0.0625,-0.5625,-0.5463867,0.2568359,0.7978516,0.1762695,-0.01757813,-0.3725586
1121,0.0625,0.0625,-0.5,-0.5385742,0.2490234,0.7900391,0.1777344,-0.02001953,-0.3740234
1122,0,0.0625,-0.4375,-0.5424805,0.2451172,0.7900391,0.1777344,-0.02001953,-0.3740234
1124,-0.0625,-0.25,-0.4375,-0.5424805,0.2490234,0.7900391,0.175293,-0.01269531,-0.3725586
1125,0.125,-0.0625,-0.5,-0.5385742,0.2490234,0.7900391,0.1801758,-0.02001953,-0.3740234
1127,-0.0625,-0.125,-0.5625,-0.5385742,0.2490234,0.7900391,0.1801758,-0.02001953,-0.3740234
1128,0,0.0625,-0.6875,-0.534668,0.2529297,0.7939453,0.1762695,-0.01904297,-0.3740234
1130,-0.125,-0.0625,-0.5625,-0.5385742,0.2529297,0.8012695,0.175293,-0.01367188,-0.3725586
1131,-0.125,-0.125,-0.75,-0.5424805,0.2529297,0.7939453,0.175293,-0.01367188,-0.3725586
1133,-0.25,0,-0.75,-0.5424805,0.2490234,0.7900391,0.1787109,-0.01904297,-0.3740234
1134,-0.1875,0,-0.8125,-0.5424805,0.2568359,0.8012695,0.1777344,-0.01757813,-0.3740234
1136,-0.6875,-0.125,-0.75,-0.5424805,0.2568359,0.7900391,0.1777344,-0.01757813,-0.3740234
1137,-0.4375,-0.1875,-0.6875,-0.5385742,0.2490234,0.7900391,0.1762695,-0.01367188,-0.3725586
1139,-0.4375,-0.1875,-0.75,-0.5385742,0.2412109,0.7939453,0.1801758,-0.02148438,-0.371582
1140,-0.3125,-0.125,-0.625,-0.5385742,0.2412109,0.7978516,0.1801758,-0.02148438,-0.371582
1142,-0.25,-0.125,-0.625,-0.5385742,0.2451172,0.7978516,0.1738281,-0.01513672,-0.3740234
1143,-0.1875,-0.3125,-0.6875,-0.5385742,0.2490234,0.7939453,0.1762695,-0.01367188,-0.3725586
1145,-0.125,-0.375,-0.6875,-0.5424805,0.2451172,0.7900391,0.1762695,-0.01367188,-0.3725586
1146,0,-0.25,-0.6875,-0.5424805,0.2568359,0.7939453,0.1787109,-0.02001953,-0.3725586
1148,-0.0625,-0.1875,-0.6875,-0.5385742,0.2568359,0.7939453,0.175293,-0.01367188,-0.3725586
1149,-0.125,-0.5,-0.625,-0.5424805,0.2490234,0.7939453,0.175293,-0.01367188,-0.3725586
1151,-0.5,-0.375,-0.8125,-0.5424805,0.2412109,0.7861328,0.1777344,-0.01513672,-0.371582
1152,-0.25,-0.4375,-0.8125,-0.5424805,0.2373047,0.7939453,0.1801758,-0.02148438,-0.371582
1154,0,-0.1875,-0.5,-0.534668,0.2451172,0.7978516,0.1801758,-0.02148438,-0.371582
1155,-0.125,-0.25,-0.75,-0.5424805,0.2412109,0.8012695,0.1738281,-0.01367188,-0.3740234
1157,-0.0625,-0.6875,-0.5625,-0.5424805,0.2490234,0.7939453,0.1801758,-0.01660156,-0.3725586
1158,-0.25,-0.8125,-0.625,-0.5424805,0.2529297,0.7900391,0.1801758,-0.01660156,-0.3725586
1160,-0.4375,-0.4375,-0.5625,-0.5385742,0.2490234,0.7978516,0.1777344,-0.02001953,-0.3740234
1162,-0.3125,-0.6875,-0.625,-0.5424805,0.2451172,0.7939453,0.1738281,-0.01367188,-0.3740234
1164,-0.1875,-0.5625,-0.8125,-0.5424805,0.2451172,0.7939453,0.1738281,-0.01367188,-0.3740234
1165,-0.3125,-0.5625,-0.6875,-0.5385742,0.2490234,0.7978516,0.1777344,-0.01904297,-0.3725586
1167,-0.3125,-0.4375,-0.75,-0.5385742,0.2490234,0.7939453,0.1777344,-0.01904297,-0.3754883
1168,-0.0625,-0.5625,-0.625,-0.5385742,0.2490234,0.7861328,0.1777344,-0.01904297,-0.3754883
1170,-0.1875,-0.625,-0.625,-0.5385742,0.2529297,0.7978516,0.175293,-0.01513672,-0.3725586
1171,-0.0625,-0.5625,-0.6875,-0.5424805,0.2529297,0.7939453,0.1777344,-0.02001953,-0.3740234
1173,-0.25,-0.5,-0.625,-0.5424805,0.2568359,0.7900391,0.1777344,-0.02001953,-0.3740234
1174,-0.3125,-0.6875,-0.6875,-0.5424805,0.2490234,0.8012695,0.1738281,-0.01904297,-0.3740234
1176,-0.4375,-0.625,-0.8125,-0.534668,0.2490234,0.7978516,0.175293,-0.01269531,-0.3740234
1177,-0.5,-0.5625,-0.875,-0.5385742,0.2568359,0.7978516,0.175293,-0.01269531,-0.3740234
1179,-0.6875,-0.6875,-0.8125,-0.534668,0.2529297,0.7978516,0.1777344,-0.02001953,-0.371582
1180,-0.6875,-0.875,-0.8125,-0.5463867,0.2490234,0.7939453,0.1762695,-0.01660156,-0.3740234
1182,-0.5625,-0.4375,-1,-0.5424805,0.2451172,0.7978516,0.1762695,-0.01660156,-0.3740234
1183,-0.5625,-0.8125,-0.8125,-0.5385742,0.2451172,0.7978516,0.1762695,-0.01367188,-0.3725586
1185,-0.125,-0.875,-0.625,-0.5424805,0.2373047,0.8012695,0.1787109,-0.02001953,-0.3740234
1186,-0.125,-0.8125,-0.625,-0.5385742,0.2333984,0.7939453,0.1787109,-0.02001953,-0.3740234
1188,0,-0.5625,-0.375,-0.5385742,0.2412109,0.7978516,0.175293,-0.01513672,-0.3740234
1189,0,-0.625,-0.5,-0.5385742,0.2333984,0.7900391,0.1762695,-0.01513672,-0.3740234
1191,0.125,-0.75,-0.3125,-0.5424805,0.2373047,0.8051758,0.1762695,-0.01513672,-0.3740234
1192,0.4375,-0.625,-0.25,-0.5424805,0.2412109,0.7978516,0.1777344,-0.02148438,-0.3740234
1194,0.375,-0.625,-0.125,-0.5385742,0.2451172,0.8012695,0.1738281,-0.01367188,-0.3725586
1195,0.3125,-0.5,-0.125,-0.534668,0.2451172,0.8012695,0.1738281,-0.01367188,-0.3725586
1197,0.5625,-0.75,-0.25,-0.5385742,0.2490234,0.7978516,0.1762695,-0.01367188,-0.3754883
1198,0.375,-0.6875,-0.1875,-0.534668,0.2568359,0.7900391,0.1787109,-0.02001953,-0.3740234
1200,0.4375,-0.6875,-0.25,-0.534668,0.2568359,0.8012695,0.1787109,-0.02001953,-0.3740234
1201,0.125,-0.5,-0.3125,-0.534668,0.2529297,0.8051758,0.175293,-0.01269531,-0.3740234
1203,0.125,-0.6875,-0.3125,-0.5385742,0.2490234,0.8012695,0.1787109,-0.01660156,-0.3740234
1204,0.1875,-0.5,-0.5625,-0.534668,0.2568359,0.7900391,0.1787109,-0.01660156,-0.3740234
1206,0.0625,-0.5,-0.625,-0.5307617,0.2490234,0.7900391,0.175293,-0.01904297,-0.3754883
1207,-0.0625,-0.875,-0.5625,-0.5385742,0.2529297,0.8012695,0.1738281,-0.01269531,-0.3725586
1209,0,-0.5,-0.5625,-0.534668,0.2529297,0.7978516,0.1738281,-0.01269531,-0.3725586
1210,-0.3125,-0.375,-0.6875,-0.5424805,0.2490234,0.8012695,0.1777344,-0.01757813,-0.3725586
1212,-0.0625,-0.5,-0.4375,-0.5385742,0.2412109,0.7978516,0.1762695,-0.02001953,-0.3740234
1213,0,-0.1875,-0.5625,-0.534668,0.2412109,0.8051758,0.1762695,-0.02001953,-0.3740234
1215,0.0625,-0.3125,-0.4375,-0.5424805,0.2373047,0.7978516,0.1738281,-0.01269531,-0.3725586
1216,0.25,-0.375,-0.375,-0.534668,0.2373047,0.7939453,0.1801758,-0.01904297,-0.3740234
1218,0.3125,-0.3125,-0.375,-0.5385742,0.2412109,0.7900391,0.1801758,-0.01904297,-0.3740234
1219,0.375,-0.25,-0.25,-0.534668,0.2412109,0.7978516,0.175293,-0.01757813,-0.371582
1221,0.4375,-0.4375,-0.25,-0.5424805,0.2412109,0.8012695,0.1762695,-0.01269531,-0.3740234
1222,0.875,-0.4375,-0.1875,-0.5463867,0.2451172,0.7900391,0.1762695,-0.01269531,-0.3740234
1224,0.4375,-0.125,-0.1875,-0.5424805,0.2451172,0.8012695,0.1777344,-0.02148438,-0.371582
1225,0.6875,-0.125,-0.125,-0.5385742,0.2451172,0.8012695,0.175293,-0.01660156,-0.3740234
1227,0.875,-0.4375,-0.125,-0.5424805,0.2451172,0.7978516,0.175293,-0.01660156,-0.3740234
1228,0.875,-0.3125,-0.0625,-0.5385742,0.2412109,0.7900391,0.1728516,-0.01269531,-0.3740234
1230,0.5,-0.1875,-0.25,-0.534668,0.2490234,0.7939453,0.1777344,-0.01904297,-0.3740234
1231,0.625,-0.4375,-0.25,-0.5424805,0.2451172,0.7900391,0.1777344,-0.01904297,-0.3740234
1233,0.4375,-0.4375,-0.1875,-0.5424805,0.2490234,0.7978516,0.175293,-0.01660156,-0.3725586
1234,0.5,-0.25,-0.25,-0.5424805,0.2412109,0.8051758,0.1777344,-0.01513672,-0.3725586
1236,0.5,-0.25,-0.0625,-0.5424805,0.2529297,0.7978516,0.1777344,-0.01513672,-0.3725586
1237,0.5625,-0.375,-0.0625,-0.550293,0.2490234,0.7978516,0.1777344,-0.02001953,-0.3740234
1239,0.3125,-0.125,-0.125,-0.5385742,0.2490234,0.7978516,0.1762695,-0.01367188,-0.3725586
1240,0.375,-0.4375,-0.0625,-0.5424805,0.2451172,0.8012695,0.1762695,-0.01367188,-0.3725586
1242,0.3125,-0.25,0.0625,-0.5385742,0.2451172,0.7900391,0.175293,-0.01660156,-0.3725586
1243,0.4375,-0.4375,0,-0.5463867,0.2412109,0.7939453,0.1762695,-0.02148438,-0.3740234
1245,0.5,-0.5,-0.0625,-0.534668,0.2451172,0.8012695,0.1762695,-0.02148438,-0.3740234
1246,0.6875,-0.5,0.125,-0.5463867,0.2412109,0.8051758,0.1728516,-0.01123047,-0.3725586
1248,0.75,-0.625,0.125,-0.5424805,0.2451172,0.7900391,0.1777344,-0.01757813,-0.3725586
1249,0.375,-0.375,0.1875,-0.5463867,0.2412109,0.7939453,0.1777344,-0.01757813,-0.3725586
1251,0.5625,-0.5625,0.1875,-0.5424805,0.2412109,0.8012695,0.1762695,-0.02001953,-0.3754883
1252,0.75,-0.3125,0.4375,-0.5307617,0.2373047,0.7978516,0.175293,-0.01269531,-0.3740234
1254,1.5,-0.1875,0.4375,-0.5424805,0.2255859,0.8129883,0.175293,-0.01269531,-0.3740234
1255,1.9375,0,0.6875,-0.534668,0.2333984,0.8129883,0.1762695,-0.02148438,-0.3754883
1257,2.4375,0.0625,0.625,-0.5424805,0.2333984,0.8012695,0.1762695,-0.01757813,-0.3740234
1260,2.5625,0.0625,0.875,-0.534668,0.2373047,0.8051758,0.1762695,-0.01757813,-0.3740234
1262,2.75,0,0.8125,-0.534668,0.2451172,0.7978516,0.175293,-0.01367188,-0.371582
1263,2.75,-0.0625,0.875,-0.5424805,0.2451172,0.8012695,0.1762695,-0.01904297,-0.371582
1265,3.0625,-0.125,1,-0.534668,0.2451172,0.8012695,0.1762695,-0.01904297,-0.371582
1266,2.75,-0.125,1,-0.5385742,0.2529297,0.7978516,0.175293,-0.01660156,-0.371582
1268,2.6875,-0.1875,0.9375,-0.534668,0.2568359,0.7939453,0.1762695,-0.01367188,-0.3725586
1269,2.8125,-0.3125,0.8125,-0.534668,0.2568359,0.7939453,0.1762695,-0.01367188,-0.3725586
1271,2.625,-0.25,0.9375,-0.5385742,0.2490234,0.7861328,0.1762695,-0.02148438,-0.3701172
1272,2.5625,-0.125,0.9375,-0.534668,0.2568359,0.7939453,0.175293,-0.01513672,-0.3740234
1274,2.3125,-0.25,0.75,-0.5307617,0.2568359,0.7939453,0.175293,-0.01513672,-0.3740234
1275,2.3125,-0.375,0.875,-0.5385742,0.2529297,0.7978516,0.1777344,-0.01513672,-0.3740234
1277,2.375,-0.5,0.75,-0.534668,0.2607422,0.7978516,0.1762695,-0.02148438,-0.3740234
1278,2.25,-0.375,0.875,-0.5424805,0.2568359,0.7978516,0.1762695,-0.02148438,-0.3740234
1280,2.1875,-0.6875,0.75,-0.5385742,0.2529297,0.8012695,0.1728516,-0.01367188,-0.3740234
1281,2.3125,-0.5,0.9375,-0.5463867,0.2451172,0.7978516,0.1762695,-0.01660156,-0.3725586
1283,2.5625,-0.125,0.9375,-0.5385742,0.2451172,0.7900391,0.1762695,-0.01660156,-0.3725586
1284,2.6875,-0.5,1,-0.5385742,0.2451172,0.7900391,0.1762695,-0.02294922,-0.3725586
1286,2.9375,-0.4375,0.9375,-0.5424805,0.2490234,0.7978516,0.175293,-0.01269531,-0.3740234
1287,2.875,-0.625,0.9375,-0.5307617,0.2568359,0.7978516,0.175293,-0.01269531,-0.3740234
1289,2.625,-0.0625,1,-0.5385742,0.2490234,0.7978516,0.1762695,-0.01904297,-0.3725586
1290,2.75,-0.5625,1,-0.5424805,0.2568359,0.7978516,0.175293,-0.02148438,-0.3754883
1292,2.6875,-0.5625,0.875,-0.5424805,0.2568359,0.7861328,0.175293,-0.02148438,-0.3754883
1293,2.6875,-0.5625,0.875,-0.534668,0.2568359,0.7978516,0.175293,-0.01367188,-0.3754883
1295,2.875,-0.1875,0.8125,-0.5385742,0.2568359,0.8051758,0.1762695,-0.02001953,-0.3740234
1296,3.5,-0.25,1,-0.534668,0.2490234,0.7978516,0.1762695,-0.02001953,-0.3740234
1298,4.125,-0.1875,0.9375,-0.5424805,0.2529297,0.8012695,0.1762695,-0.01904297,-0.3740234
1299,4.5625,0,1,-0.5385742,0.2529297,0.7978516,0.1738281,-0.01367188,-0.3725586
1301,4.4375,0,0.9375,-0.534668,0.2607422,0.8012695,0.1738281,-0.01367188,-0.3725586
1302,4.4375,-0.125,1,-0.5385742,0.2646484,0.8012695,0.1777344,-0.02294922,-0.3725586
1304,4.5,-0.125,0.875,-0.534668,0.2607422,0.7822266,0.175293,-0.01904297,-0.371582
1305,4.3125,-0.0625,0.8125,-0.534668,0.2607422,0.7861328,0.175293,-0.01904297,-0.371582
1307,4.4375,-0.4375,0.75,-0.534668,0.2685547,0.7861328,0.1762695,-0.01513672,-0.371582
1308,3.75,-0.125,0.625,-0.5307617,0.2568359,0.7939453,0.1777344,-0.02148438,-0.3725586
1310,3.8125,-0.1875,0.75,-0.5307617,0.2412109,0.8012695,0.1777344,-0.02148438,-0.3725586
1311,3.75,-0.125,0.5625,-0.5268555,0.2685547,0.7822266,0.1738281,-0.01757813,-0.3725586
1313,3.125,-0.4375,0.5,-0.534668,0.2685547,0.7900391,0.175293,-0.01660156,-0.3725586
1314,2.875,-0.0625,0.3125,-0.5268555,0.2685547,0.7939453,0.175293,-0.01660156,-0.3725586
1316,2.5,0.0625,0.0625,-0.534668,0.2685547,0.8012695,0.1762695,-0.02392578,-0.3725586
1317,2.0625,-0.1875,0.0625,-0.5307617,0.2685547,0.7861328,0.1738281,-0.01757813,-0.371582
1319,2.375,-0.1875,0.125,-0.534668,0.2529297,0.7939453,0.1738281,-0.01757813,-0.371582
1320,2.25,-0.125,0.1875,-0.5385742,0.2646484,0.7861328,0.1762695,-0.01757813,-0.3740234
1322,1.625,-0.3125,0,-0.5307617,0.2685547,0.7861328,0.1762695,-0.02294922,-0.3725586
1323,1.625,-0.3125,0,-0.5307617,0.2607422,0.7900391,0.1762695,-0.02294922,-0.3725586
1325,1.5625,-0.4375,0,-0.5307617,0.2607422,0.7861328,0.1728516,-0.01660156,-0.3740234
1326,1.1875,-0.3125,0.1875,-0.534668,0.2607422,0.7978516,0.1762695,-0.01904297,-0.371582
1328,1.375,-0.1875,0,-0.5385742,0.2607422,0.7900391,0.1762695,-0.01904297,-0.371582
1329,1.0625,-0.5,0,-0.5385742,0.2568359,0.7939453,0.1762695,-0.02294922,-0.3725586
1331,0.6875,-0.1875,-0.0625,-0.5385742,0.2607422,0.7900391,0.1738281,-0.01513672,-0.3754883
1332,0.6875,-0.1875,-0.125,-0.534668,0.2568359,0.7939453,0.1738281,-0.01513672,-0.3754883
1334,0.8125,-0.1875,0,-0.534668,0.2607422,0.7822266,0.1762695,-0.02148438,-0.3725586
1335,0.875,-0.3125,0,-0.534668,0.2607422,0.7939453,0.1787109,-0.02148438,-0.3740234
1337,0.8125,-0.4375,-0.1875,-0.5307617,0.2568359,0.7978516,0.1787109,-0.02148438,-0.3740234
1338,0.5625,-0.375,-0.125,-0.5307617,0.2607422,0.7861328,0.175293,-0.01513672,-0.3725586
1340,0.1875,-0.1875,-0.25,-0.534668,0.2685547,0.7822266,0.1777344,-0.02148438,-0.3740234
1341,0.0625,-0.25,-0.1875,-0.534668,0.2724609,0.7900391,0.1777344,-0.02148438,-0.3740234
1343,0,-0.5,-0.3125,-0.5307617,0.2685547,0.7939453,0.1738281,-0.02001953,-0.3725586
1344,-0.3125,-0.4375,-0.4375,-0.534668,0.2685547,0.7861328,0.1738281,-0.01757813,-0.3725586
1346,-0.25,-0.1875,-0.5625,-0.534668,0.2646484,0.7900391,0.1738281,-0.01757813,-0.3725586
1347,-0.375,-0.25,-0.75,-0.5307617,0.2607422,0.7978516,0.1762695,-0.02392578,-0.3725586
1349,-0.1875,-0.125,-0.5625,-0.5268555,0.2568359,0.8012695,0.175293,-0.02001953,-0.3725586
1350,0,-0.0625,-0.8125,-0.534668,0.2529297,0.7939453,0.175293,-0.02001953,-0.3725586
1352,-0.0625,-0.1875,-0.5,-0.5307617,0.2568359,0.7978516,0.1738281,-0.01513672,-0.371582
1353,0.1875,-0.125,-0.625,-0.5385742,0.2607422,0.7861328,0.1762695,-0.02392578,-0.3725586
1355,-0.125,-0.125,-0.75,-0.5307617,0.2646484,0.8051758,0.1762695,-0.02392578,-0.3725586
1357,0,0,-0.5625,-0.5307617,0.2685547,0.7861328,0.1738281,-0.01757813,-0.3725586
1359,0,0,-0.9375,-0.534668,0.2685547,0.7939453,0.175293,-0.01757813,-0.3754883
1360,0,-0.0625,-0.75,-0.5268555,0.2646484,0.7978516,0.175293,-0.01757813,-0.3754883
1362,-0.1875,0,-0.875,-0.534668,0.2568359,0.7939453,0.1777344,-0.02294922,-0.371582
1363,-0.1875,-0.0625,-0.8125,-0.534668,0.2529297,0.7900391,0.1728516,-0.01513672,-0.3740234
1365,-0.25,0,-0.5625,-0.5307617,0.2568359,0.7978516,0.1728516,-0.01513672,-0.3740234
1366,-0.125,0,-0.875,-0.5385742,0.2568359,0.7939453,0.1762695,-0.01904297,-0.3725586
1368,-0.1875,-0.125,-0.6875,-0.5385742,0.2568359,0.8051758,0.1777344,-0.02294922,-0.3740234
1369,-0.375,-0.0625,-0.8125,-0.5385742,0.2529297,0.7822266,0.1777344,-0.02294922,-0.3740234
1371,-0.25,-0.0625,-0.625,-0.5385742,0.2568359,0.8012695,0.1728516,-0.01513672,-0.3725586
1372,-0.125,-0.25,-0.625,-0.534668,0.2529297,0.7978516,0.1762695,-0.02148438,-0.3740234
1374,-0.25,0,-0.625,-0.534668,0.2607422,0.7900391,0.1762695,-0.02148438,-0.3740234
1375,-0.625,-0.125,-0.8125,-0.534668,0.2646484,0.7939453,0.1762695,-0.02392578,-0.3740234
1377,-0.5625,0.125,-0.625,-0.534668,0.2724609,0.7900391,0.1728516,-0.01513672,-0.3740234
1378,-1,-0.125,-1.1875,-0.5268555,0.2685547,0.7900391,0.1728516,-0.01513672,-0.3740234
1380,-0.875,-0.25,-1.1875,-0.5268555,0.2724609,0.7861328,0.1762695,-0.02294922,-0.3740234
1381,-1.5,0.125,-1.3125,-0.519043,0.2724609,0.7900391,0.175293,-0.02001953,-0.3740234
1383,-1.5,0,-1.5625,-0.5268555,0.2646484,0.7939453,0.175293,-0.02001953,-0.3740234
1384,-1.8125,-0.125,-1.5625,-0.5307617,0.2646484,0.7861328,0.1738281,-0.01660156,-0.3725586
1386,-1.5,-0.3125,-1.625,-0.5307617,0.2607422,0.7900391,0.1777344,-0.02001953,-0.371582
1387,-2.125,0.0625,-1.75,-0.5307617,0.2646484,0.7900391,0.1777344,-0.02001953,-0.371582
1389,-2.125,-0.125,-2.0625,-0.5268555,0.2646484,0.7939453,0.1738281,-0.02001953,-0.3725586
1390,-2.1875,-0.1875,-2,-0.5229492,0.2607422,0.7978516,0.1738281,-0.01513672,-0.3725586
1392,-1.875,0.0625,-2.1875,-0.534668,0.2646484,0.8051758,0.1738281,-0.01513672,-0.3725586
1393,-2.3125,-0.125,-2.0625,-0.5307617,0.2685547,0.7939453,0.1777344,-0.02294922,-0.3740234
1395,-2.375,-0.0625,-2.0625,-0.534668,0.2529297,0.7861328,0.1728516,-0.01757813,-0.3725586
1396,-2.625,-0.125,-2.3125,-0.534668,0.2529297,0.7900391,0.1728516,-0.01757813,-0.3725586
1398,-2.5,-0.1875,-2.125,-0.5385742,0.2568359,0.8051758,0.1762695,-0.01757813,-0.3725586
1399,-2.3125,-0.125,-2.1875,-0.534668,0.2529297,0.8012695,0.1787109,-0.02001953,-0.3740234
1401,-2.4375,0.25,-2.3125,-0.5385742,0.2568359,0.8051758,0.1787109,-0.02001953,-0.3740234
1402,-2.375,0,-2.3125,-0.534668,0.2607422,0.8012695,0.1762695,-0.01513672,-0.3740234
1404,-2.375,-0.125,-2.3125,-0.534668,0.2646484,0.7978516,0.1762695,-0.01660156,-0.3725586
1405,-2.5625,0.0625,-2.625,-0.5307617,0.2646484,0.7900391,0.1762695,-0.01660156,-0.3725586
1407,-2.9375,-0.125,-2.6875,-0.5268555,0.2529297,0.7978516,0.1762695,-0.02294922,-0.3725586
1408,-2.5,-0.125,-2.5625,-0.5307617,0.2490234,0.7939453,0.175293,-0.01513672,-0.3740234
1410,-2.375,0.125,-2.625,-0.5307617,0.2568359,0.7978516,0.175293,-0.01513672,-0.3740234
1411,-2.4375,0.0625,-2.6875,-0.5307617,0.2607422,0.7861328,0.1762695,-0.01757813,-0.3740234
1413,-2.4375,0.0625,-2.8125,-0.534668,0.2529297,0.8012695,0.1777344,-0.02148438,-0.3740234
1414,-2.5,0.125,-2.75,-0.534668,0.2490234,0.7900391,0.1777344,-0.02148438,-0.3740234
1416,-2.3125,-0.0625,-2.8125,-0.5385742,0.2490234,0.8012695,0.1738281,-0.01367188,-0.3725586
1417,-2.0625,0.1875,-2.75,-0.5385742,0.2412109,0.7978516,0.1777344,-0.02001953,-0.3740234
1419,-2.1875,0,-2.625,-0.5424805,0.2412109,0.8051758,0.1777344,-0.02001953,-0.3740234
1420,-1.9375,0.3125,-2.5,-0.5463867,0.2412109,0.8012695,0.175293,-0.01904297,-0.3725586
1422,-1.75,0.125,-2.0625,-0.5424805,0.2373047,0.7900391,0.1738281,-0.01513672,-0.3725586
1423,-1.375,0.1875,-2.125,-0.5385742,0.2373047,0.7939453,0.1738281,-0.01513672,-0.3725586
1425,-1.0625,0,-1.9375,-0.534668,0.2451172,0.7939453,0.1777344,-0.02148438,-0.3725586
1426,-1.125,0.1875,-1.6875,-0.5424805,0.2490234,0.8012695,0.1762695,-0.02001953,-0.3725586
1428,-0.9375,0.3125,-1.625,-0.5424805,0.2451172,0.7939453,0.1762695,-0.02001953,-0.3725586
1429,-1,0.3125,-1.6875,-0.5424805,0.2529297,0.7978516,0.1762695,-0.01367188,-0.3725586
1431,-1.3125,0.1875,-1.625,-0.5424805,0.2490234,0.7939453,0.175293,-0.02148438,-0.371582
1432,-1.4375,0.125,-1.5,-0.534668,0.2451172,0.7978516,0.175293,-0.02148438,-0.371582
1434,-1.25,0.5,-1.4375,-0.5424805,0.2451172,0.7900391,0.175293,-0.01660156,-0.3725586
1435,-0.875,0,-1.5,-0.5424805,0.2412109,0.7978516,0.1738281,-0.01269531,-0.3740234
1437,-0.9375,0.0625,-1.375,-0.5385742,0.2451172,0.7978516,0.1738281,-0.01269531,-0.3740234
1438,-0.6875,0.125,-1.3125,-0.5424805,0.2490234,0.7978516,0.1801758,-0.02001953,-0.371582
1440,-0.8125,0.125,-1.125,-0.534668,0.2451172,0.7978516,0.175293,-0.01660156,-0.3725586
1441,-0.75,0.375,-1.25,-0.5385742,0.2490234,0.7978516,0.175293,-0.01660156,-0.3725586
1443,-0.6875,0.1875,-1.1875,-0.5424805,0.2451172,0.8012695,0.175293,-0.01513672,-0.371582
1444,-0.4375,-0.125,-1.1875,-0.5424805,0.2451172,0.8051758,0.1777344,-0.02148438,-0.3725586
1446,-0.3125,-0.0625,-1,-0.5463867,0.2490234,0.7939453,0.1777344,-0.02148438,-0.3725586
1447,-0.4375,0.125,-0.9375,-0.5385742,0.2412109,0.7978516,0.1762695,-0.01367188,-0.3725586
1449,-0.3125,0.1875,-0.875,-0.534668,0.2373047,0.7978516,0.1777344,-0.01660156,-0.3725586
1450,0,0,-0.8125,-0.5385742,0.2412109,0.7978516,0.1777344,-0.01660156,-0.3725586
1452,0,0,-0.5625,-0.5385742,0.2490234,0.7978516,0.1777344,-0.02148438,-0.3740234
1455,-0.25,0.1875,-0.625,-0.5463867,0.2412109,0.7939453,0.175293,-0.01269531,-0.3740234
1457,-0.625,0,-0.8125,-0.5385742,0.2412109,0.7939453,0.175293,-0.01269531,-0.3740234
1458,-0.3125,0.1875,-0.5625,-0.5307617,0.2373047,0.7978516,0.1777344,-0.01904297,-0.3725586
1460,0,0.0625,-0.5,-0.5385742,0.2451172,0.7900391,0.1762695,-0.02001953,-0.3740234
1461,0.25,0,-0.5,-0.534668,0.2568359,0.7939453,0.1762695,-0.02001953,-0.3740234
1463,-0.0625,0.1875,-0.6875,-0.5307617,0.2607422,0.7978516,0.1738281,-0.01367188,-0.3725586
1464,-0.0625,0.1875,-0.5625,-0.534668,0.2607422,0.7978516,0.1777344,-0.01904297,-0.3740234
1466,-0.125,0.25,-0.6875,-0.5307617,0.2490234,0.7978516,0.1777344,-0.01904297,-0.3740234
1467,0.0625,0.0625,-0.8125,-0.5385742,0.2529297,0.7978516,0.175293,-0.01904297,-0.3725586
1469,0.25,0,-0.75,-0.534668,0.2529297,0.8012695,0.175293,-0.01367188,-0.3740234
1470,0,0.3125,-0.875,-0.5385742,0.2490234,0.8051758,0.175293,-0.01367188,-0.3740234
1472,-0.0625,0.3125,-0.75,-0.534668,0.2568359,0.8051758,0.1762695,-0.02001953,-0.3725586
1473,-0.3125,0.1875,-0.8125,-0.5307617,0.2529297,0.7978516,0.1738281,-0.01757813,-0.3740234
1475,-0.25,0.125,-0.9375,-0.5307617,0.2529297,0.7900391,0.1738281,-0.01757813,-0.3740234
1476,0,0,-0.75,-0.534668,0.2451172,0.7939453,0.1738281,-0.01367188,-0.371582
1478,-0.1875,0.25,-0.9375,-0.5385742,0.2529297,0.7978516,0.1777344,-0.02148438,-0.3725586
1479,0,0.375,-0.75,-0.534668,0.2529297,0.7978516,0.1777344,-0.02148438,-0.3725586
1481,0,0.125,-0.875,-0.5385742,0.2490234,0.8012695,0.175293,-0.01660156,-0.3725586
1482,0,0.5625,-0.875,-0.534668,0.2490234,0.8012695,0.175293,-0.01513672,-0.3725586
1484,0,0.375,-0.8125,-0.5385742,0.2451172,0.7939453,0.175293,-0.01513672,-0.3725586
1485,0.1875,0.375,-0.6875,-0.5385742,0.2490234,0.7939453,0.1762695,-0.02148438,-0.3725586
1487,0.3125,0.1875,-0.6875,-0.534668,0.2412109,0.809082,0.175293,-0.01660156,-0.3740234
1488,0.1875,0.4375,-0.625,-0.5385742,0.2490234,0.8012695,0.175293,-0.01660156,-0.3740234
1490,0.125,0.375,-0.75,-0.5385742,0.2490234,0.7939453,0.1762695,-0.01660156,-0.3725586
1491,0.5,0.125,-0.4375,-0.534668,0.2451172,0.7939453,0.1777344,-0.02148438,-0.3740234
1493,0.4375,0.25,-0.625,-0.534668,0.2529297,0.7861328,0.1777344,-0.02148438,-0.3740234
1494,0.4375,0.375,-0.625,-0.5424805,0.2646484,0.7939453,0.1738281,-0.01123047,-0.3740234
1496,0.125,0.375,-0.75,-0.5385742,0.2607422,0.7939453,0.1787109,-0.01904297,-0.3725586
1497,0,0.125,-0.875,-0.5385742,0.2568359,0.7861328,0.1787109,-0.01904297,-0.3725586
1499,0,0.3125,-0.8125,-0.534668,0.2568359,0.7900391,0.1762695,-0.02001953,-0.3725586
1500,0,0.5625,-0.9375,-0.5424805,0.2451172,0.7900391,0.1738281,-0.01367188,-0.3725586
1502,0.0625,0.1875,-0.75,-0.5385742,0.2412109,0.8012695,0.1738281,-0.01367188,-0.3725586
1503,0.4375,0.3125,-0.8125,-0.5385742,0.2451172,0.7900391,0.1777344,-0.02001953,-0.3740234
1505,0.5,0.0625,-0.4375,-0.5385742,0.2412109,0.8012695,0.175293,-0.01904297,-0.3725586
1506,0.375,0.375,-0.75,-0.5385742,0.2412109,0.7939453,0.175293,-0.01904297,-0.3725586
1508,0.375,0,-0.5,-0.5385742,0.2451172,0.7978516,0.1738281,-0.01269531,-0.3725586
1509,0.375,0.125,-0.6875,-0.5385742,0.2490234,0.7939453,0.1777344,-0.02001953,-0.3725586
1511,0.5625,0,-0.5,-0.5424805,0.2568359,0.7978516,0.1777344,-0.02001953,-0.3725586
1512,0.3125,0.25,-0.375,-0.5424805,0.2568359,0.7900391,0.175293,-0.01904297,-0.3725586
1514,0.1875,-0.0625,-0.3125,-0.5385742,0.2529297,0.7900391,0.1738281,-0.01269531,-0.3754883
1515,0.1875,0,-0.5,-0.5385742,0.2529297,0.7978516,0.1738281,-0.01269531,-0.3754883
1517,0.1875,-0.125,-0.5,-0.5424805,0.2490234,0.7978516,0.1787109,-0.02148438,-0.3725586
1518,0.0625,0.1875,-0.375,-0.5463867,0.2451172,0.7978516,0.175293,-0.01660156,-0.3725586
1520,0.375,-0.125,-0.5625,-0.5385742,0.2451172,0.7861328,0.175293,-0.01660156,-0.3725586
1521,0.4375,0,-0.25,-0.5424805,0.2490234,0.7939453,0.1762695,-0.01367188,-0.3725586
1523,0.1875,-0.0625,-0.375,-0.5385742,0.2490234,0.7939453,0.1777344,-0.02148438,-0.3740234
1524,0.1875,-0.375,-0.375,-0.534668,0.2490234,0.7939453,0.1777344,-0.02148438,-0.3740234
1526,0.4375,-0.0625,-0.3125,-0.5385742,0.2373047,0.7939453,0.175293,-0.01660156,-0.3740234
1527,0.625,-0.1875,-0.375,-0.5385742,0.2451172,0.7978516,0.175293,-0.01513672,-0.3725586
1529,0.875,-0.25,-0.3125,-0.534668,0.2451172,0.7939453,0.175293,-0.01513672,-0.3725586
1530,0.8125,-0.125,-0.0625,-0.5385742,0.2412109,0.7939453,0.1762695,-0.02148438,-0.3740234
1532,1.0625,-0.125,0.125,-0.5424805,0.2373047,0.8012695,0.175293,-0.01660156,-0.3725586
1533,1.25,-0.1875,0.0625,-0.5424805,0.2412109,0.8051758,0.175293,-0.01660156,-0.3725586
1535,1.375,-0.1875,0.3125,-0.5424805,0.2412109,0.7939453,0.1762695,-0.01757813,-0.3725586
1536,1.6875,-0.125,0.375,-0.5424805,0.2451172,0.7978516,0.1777344,-0.02148438,-0.3725586
1538,1.625,0,0.1875,-0.5424805,0.2529297,0.7939453,0.1777344,-0.02148438,-0.3725586
1539,1.4375,0.125,0.3125,-0.534668,0.2490234,0.8051758,0.1728516,-0.01367188,-0.3740234
1541,1.375,0,0.3125,-0.534668,0.2529297,0.7939453,0.1777344,-0.01904297,-0.3740234
1542,1.5,-0.1875,0.625,-0.5385742,0.2568359,0.7939453,0.1777344,-0.01904297,-0.3740234
1544,1.6875,0,0.375,-0.5385742,0.2529297,0.7861328,0.1762695,-0.02294922,-0.3725586
1545,1.25,0,0.3125,-0.5385742,0.2529297,0.7939453,0.1738281,-0.01513672,-0.3740234
1547,1.25,-0.25,0.375,-0.5385742,0.2529297,0.7978516,0.1738281,-0.01513672,-0.3740234
1548,1.1875,-0.1875,0.3125,-0.534668,0.2607422,0.7978516,0.1787109,-0.02148438,-0.3740234
1550,0.875,-0.125,0.375,-0.534668,0.2568359,0.7978516,0.175293,-0.02001953,-0.3725586
1552,0.75,0.0625,0.1875,-0.534668,0.2568359,0.7939453,0.175293,-0.02001953,-0.3725586
1554,0.6875,-0.1875,0.1875,-0.5424805,0.2451172,0.7939453,0.1713867,-0.01367188,-0.3725586
1555,0.9375,-0.125,0.3125,-0.534668,0.2490234,0.7900391,0.1777344,-0.02148438,-0.3725586
1557,1.0625,0,0.125,-0.534668,0.2490234,0.7978516,0.1777344,-0.02148438,-0.3725586
1558,1.25,-0.4375,0.3125,-0.534668,0.2568359,0.7900391,0.1762695,-0.01757813,-0.371582
1560,1.125,-0.0625,0,-0.534668,0.2568359,0.7939453,0.1738281,-0.01513672,-0.3725586
1561,0.9375,0.0625,0,-0.534668,0.2568359,0.7978516,0.1738281,-0.01513672,-0.3725586
1563,0.875,0.25,0,-0.534668,0.2607422,0.7978516,0.1777344,-0.02148438,-0.371582
1564,0.9375,-0.0625,-0.25,-0.534668,0.2568359,0.7978516,0.175293,-0.01660156,-0.3725586
1566,1,0,0,-0.5307617,0.2568359,0.7939453,0.175293,-0.01660156,-0.3725586
1567,0.875,0.125,-0.25,-0.5424805,0.2529297,0.7978516,0.1762695,-0.01660156,-0.371582
1569,0.75,0,-0.25,-0.5385742,0.2646484,0.7900391,0.1777344,-0.02148438,-0.3725586
1570,0.625,-0.0625,-0.375,-0.534668,0.2568359,0.7939453,0.1777344,-0.02148438,-0.3725586
1572,0.5,-0.125,-0.3125,-0.534668,0.2646484,0.7939453,0.175293,-0.01513672,-0.3740234
1573,0.375,-0.125,-0.5625,-0.534668,0.2646484,0.7900391,0.1762695,-0.01757813,-0.3740234
1575,0.125,0.125,-0.8125,-0.5385742,0.2568359,0.7900391,0.1762695,-0.01757813,-0.3740234
1576,0,0,-0.5625,-0.5307617,0.2568359,0.7939453,0.1777344,-0.02294922,-0.3725586
1578,0.125,-0.125,-0.6875,-0.534668,0.2490234,0.7939453,0.175293,-0.01513672,-0.3725586
1579,0.125,0,-0.75,-0.5424805,0.2607422,0.8012695,0.175293,-0.01513672,-0.3725586
1581,0,0.1875,-0.9375,-0.534668,0.2568359,0.7939453,0.1762695,-0.01904297,-0.3754883
1582,0,0.0625,-0.8125,-0.5424805,0.2529297,0.7939453,0.175293,-0.02148438,-0.371582
1584,0.125,-0.0625,-1,-0.534668,0.2490234,0.7939453,0.175293,-0.02148438,-0.371582
1585,0.125,0.1875,-0.875,-0.5385742,0.2451172,0.7978516,0.175293,-0.01269531,-0.3740234
1587,0.25,0.0625,-0.8125,-0.5424805,0.2529297,0.7939453,0.1787109,-0.01904297,-0.3740234
1588,0.1875,0,-0.75,-0.534668,0.2607422,0.8012695,0.1787109,-0.01904297,-0.3740234
1590,0.3125,0.0625,-0.875,-0.5385742,0.2607422,0.7978516,0.175293,-0.02001953,-0.371582
1591,0.125,0.125,-1.0625,-0.534668,0.2490234,0.7939453,0.175293,-0.01367188,-0.3725586
1593,-0.0625,0.0625,-0.9375,-0.5307617,0.2490234,0.7939453,0.175293,-0.01367188,-0.3725586
1594,-0.0625,0,-0.9375,-0.5424805,0.2529297,0.7939453,0.1777344,-0.02294922,-0.3725586
1596,0.125,0.125,-1,-0.5424805,0.2529297,0.7900391,0.175293,-0.01904297,-0.3754883
1597,0.125,-0.25,-0.875,-0.5307617,0.2529297,0.7939453,0.175293,-0.01904297,-0.3754883
1599,0.1875,-0.0625,-1,-0.5424805,0.2529297,0.7939453,0.175293,-0.01367188,-0.3740234
1600,0,-0.125,-1.0625,-0.5307617,0.2568359,0.7900391,0.1777344,-0.02294922,-0.371582
1602,0,0,-0.9375,-0.5385742,0.2568359,0.8051758,0.1777344,-0.02294922,-0.371582
1603,0.1875,-0.1875,-1.1875,-0.5385742,0.2607422,0.8012695,0.175293,-0.01904297,-0.371582
1605,-0.125,0,-1.375,-0.534668,0.2568359,0.8051758,0.175293,-0.01513672,-0.3725586
1606,-0.6875,0.25,-1,-0.5268555,0.2451172,0.7900391,0.175293,-0.01513672,-0.3725586
1608,-0.125,0,-1.1875,-0.5463867,0.2490234,0.7978516,0.1787109,-0.02294922,-0.3725586
1609,-0.0625,-0.1875,-1.3125,-0.534668,0.2490234,0.8012695,0.1738281,-0.01660156,-0.3740234
1611,-0.0625,0,-1.3125,-0.5385742,0.2529297,0.7900391,0.1738281,-0.01660156,-0.3740234
1612,0.0625,0,-1.25,-0.5307617,0.2529297,0.8012695,0.1762695,-0.01757813,-0.3725586
1614,0.0625,0.0625,-1.3125,-0.5424805,0.2490234,0.7900391,0.1777344,-0.02148438,-0.3740234
1615,0.1875,-0.0625,-1.25,-0.5385742,0.2490234,0.7900391,0.1777344,-0.02148438,-0.3740234
1617,0.1875,0.0625,-1.25,-0.5307617,0.2607422,0.8012695,0.175293,-0.01367188,-0.3740234
1618,0,0.25,-1.1875,-0.534668,0.2451172,0.7939453,0.1787109,-0.01757813,-0.3740234
1620,0.125,0.125,-1,-0.5424805,0.2373047,0.7861328,0.1787109,-0.01757813,-0.3740234
1621,0.3125,0,-1,-0.5385742,0.2529297,0.7939453,0.1777344,-0.02148438,-0.3725586
1623,-0.125,0.125,-1,-0.534668,0.2490234,0.7978516,0.175293,-0.01367188,-0.3754883
1624,0.125,0.25,-0.9375,-0.5463867,0.2451172,0.8012695,0.175293,-0.01367188,-0.3754883
1626,0.1875,0.125,-0.875,-0.5385742,0.2529297,0.8012695,0.1777344,-0.02001953,-0.3740234
1627,0.3125,0.3125,-1.0625,-0.5385742,0.2529297,0.8012695,0.1777344,-0.02001953,-0.3725586
1629,0.5,0.125,-0.9375,-0.5307617,0.2529297,0.7978516,0.1777344,-0.02001953,-0.3725586
1630,0.5,0.375,-0.875,-0.5307617,0.2451172,0.7978516,0.1738281,-0.01513672,-0.3725586
1632,0.5625,0,-0.9375,-0.5385742,0.2490234,0.7900391,0.1777344,-0.02001953,-0.3740234
1633,1,0.375,-0.8125,-0.5385742,0.2490234,0.7939453,0.1777344,-0.02001953,-0.3740234
1635,0.875,0.0625,-0.9375,-0.5424805,0.2490234,0.7861328,0.1762695,-0.01904297,-0.371582
1636,0.9375,0.25,-0.75,-0.534668,0.2568359,0.8012695,0.1738281,-0.01513672,-0.3725586
1638,0.875,-0.0625,-0.9375,-0.5424805,0.2529297,0.7900391,0.1738281,-0.01513672,-0.3725586
1639,0.625,0.25,-0.75,-0.5463867,0.2490234,0.7978516,0.1777344,-0.02148438,-0.371582
1641,0.5,0,-0.75,-0.5385742,0.2451172,0.7978516,0.175293,-0.01904297,-0.3725586
1642,0.75,0,-0.625,-0.534668,0.2568359,0.7822266,0.175293,-0.01904297,-0.3725586
1644,0.4375,0.0625,-0.75,-0.5424805,0.2568359,0.7861328,0.1777344,-0.01513672,-0.3740234
1645,0.4375,0.0625,-0.8125,-0.5424805,0.2529297,0.7939453,0.1762695,-0.02148438,-0.3740234
1647,0.6875,-0.125,-0.875,-0.534668,0.2607422,0.7900391,0.1762695,-0.02148438,-0.3740234
1650,0.25,0.0625,-1,-0.534668,0.2685547,0.7783203,0.1728516,-0.01660156,-0.3725586
1652,0.1875,-0.125,-1.0625,-0.5424805,0.2607422,0.7900391,0.1762695,-0.01513672,-0.3740234
1653,0.1875,-0.0625,-1,-0.5385742,0.2529297,0.7900391,0.1762695,-0.01513672,-0.3740234
1655,0.125,0,-1.3125,-0.5424805,0.2607422,0.7900391,0.1777344,-0.02294922,-0.3754883
1656,0.125,0.0625,-1.3125,-0.5385742,0.2529297,0.7939453,0.175293,-0.01513672,-0.3754883
1658,0.0625,-0.0625,-1.4375,-0.5307617,0.2607422,0.8012695,0.175293,-0.01513672,-0.3754883
1659,-0.0625,0.375,-1.25,-0.534668,0.2490234,0.7978516,0.1762695,-0.01757813,-0.3725586
1661,0.125,0.375,-1.375,-0.5424805,0.2412109,0.7978516,0.1777344,-0.02294922,-0.3725586
1662,0.125,0.125,-1.1875,-0.534668,0.2294922,0.7939453,0.1777344,-0.02294922,-0.3725586
1664,0.6875,-0.0625,-1.125,-0.5463867,0.2451172,0.7861328,0.175293,-0.01367188,-0.3740234
1665,0.6875,0.25,-1.125,-0.5385742,0.2529297,0.7861328,0.1777344,-0.01757813,-0.3740234
1667,0.625,0.1875,-1.0625,-0.5385742,0.2529297,0.8012695,0.1777344,-0.01757813,-0.3740234
1668,0.5625,0.375,-1.125,-0.534668,0.2568359,0.7900391,0.1787109,-0.02148438,-0.3740234
1670,0.5,0.3125,-1,-0.534668,0.2529297,0.7900391,0.175293,-0.01513672,-0.3754883
1671,0.5625,0.125,-1.0625,-0.5307617,0.2490234,0.8051758,0.175293,-0.01513672,-0.3754883
1673,0.4375,0.625,-0.8125,-0.5424805,0.2490234,0.7978516,0.1762695,-0.02148438,-0.3740234
1674,0.75,0.1875,-0.875,-0.5424805,0.2451172,0.7939453,0.1777344,-0.01904297,-0.3740234
1676,1.0625,0,-0.625,-0.5385742,0.2490234,0.8051758,0.1777344,-0.01904297,-0.3740234
1677,0.8125,0.25,-0.6875,-0.534668,0.2568359,0.7900391,0.1738281,-0.01367188,-0.3740234
1679,0.8125,0.3125,-0.625,-0.534668,0.2607422,0.7900391,0.1762695,-0.02001953,-0.3725586
1680,0.6875,0,-0.625,-0.5424805,0.2646484,0.7939453,0.1762695,-0.02001953,-0.3725586
1682,0.5625,0.3125,-0.8125,-0.534668,0.2685547,0.7861328,0.1738281,-0.01904297,-0.3740234
1683,0.1875,0,-0.9375,-0.5385742,0.2685547,0.7861328,0.175293,-0.01513672,-0.3725586
1685,-0.125,0.0625,-0.9375,-0.5385742,0.2607422,0.7939453,0.175293,-0.01513672,-0.3725586
1686,-0.25,0.0625,-0.8125,-0.534668,0.2490234,0.7978516,0.1762695,-0.02148438,-0.3740234
1688,-0.0625,0.1875,-0.8125,-0.5385742,0.2373047,0.7978516,0.1738281,-0.01660156,-0.3725586
1689,0.125,0,-0.625,-0.5385742,0.2412109,0.8051758,0.1738281,-0.01660156,-0.3725586
1691,0.6875,0.1875,-0.6875,-0.5463867,0.2373047,0.8051758,0.175293,-0.01660156,-0.3725586
1692,0.75,0.375,-0.5,-0.5424805,0.2373047,0.8012695,0.1787109,-0.02294922,-0.3725586
1694,0.9375,0.5625,-0.25,-0.534668,0.2412109,0.7939453,0.1787109,-0.02294922,-0.3725586
1695,1.5,0.375,-0.1875,-0.5463867,0.2373047,0.8012695,0.175293,-0.01513672,-0.3725586
1697,1.6875,0.5,-0.0625,-0.5385742,0.2412109,0.809082,0.1762695,-0.01757813,-0.3740234
1698,1.75,0.5,0.3125,-0.5424805,0.2412109,0.7978516,0.1762695,-0.01757813,-0.3740234
1700,1.6875,0.75,0.25,-0.534668,0.2490234,0.8012695,0.1777344,-0.02148438,-0.3740234
1701,1.6875,0.625,0.3125,-0.5424805,0.2568359,0.8012695,0.1762695,-0.01513672,-0.3754883
1703,1.75,0.5,0.1875,-0.534668,0.2607422,0.7939453,0.1762695,-0.01513672,-0.3754883
1704,1.5,0.1875,0.125,-0.5385742,0.2607422,0.7861328,0.1762695,-0.01904297,-0.3725586
1706,1.3125,0.1875,0.125,-0.5307617,0.2607422,0.7900391,0.1762695,-0.02294922,-0.3740234
1707,0.9375,0.4375,0.0625,-0.534668,0.2646484,0.8012695,0.1762695,-0.02294922,-0.3740234
1709,0.625,0.1875,0.1875,-0.5424805,0.2568359,0.7978516,0.175293,-0.01513672,-0.3740234
1710,0.875,0.3125,0.125,-0.5463867,0.2412109,0.8051758,0.1762695,-0.02001953,-0.3725586
1712,1.125,0.1875,0.25,-0.5424805,0.2412109,0.7978516,0.1762695,-0.02001953,-0.3725586
1713,1.3125,0.3125,0.3125,-0.5463867,0.2490234,0.8051758,0.1777344,-0.02001953,-0.3725586
1715,1.25,0.1875,0.375,-0.5385742,0.2412109,0.809082,0.175293,-0.01513672,-0.3740234
1716,1.5,0.1875,0.5625,-0.5385742,0.2529297,0.7900391,0.175293,-0.01513672,-0.3740234
1718,1.5625,0.375,0.5625,-0.5424805,0.2568359,0.7939453,0.1787109,-0.02294922,-0.3725586
1719,1.25,0.625,0.5,-0.5385742,0.2529297,0.7978516,0.1777344,-0.01904297,-0.3725586
1721,1.1875,0.8125,0.625,-0.5307617,0.2451172,0.7978516,0.1777344,-0.01904297,-0.3725586
1722,1.5625,0.25,0.6875,-0.5385742,0.2490234,0.7939453,0.1762695,-0.01513672,-0.371582
1724,1.625,0.75,0.8125,-0.5385742,0.2490234,0.809082,0.1762695,-0.02294922,-0.3725586
1725,1.75,0.6875,0.75,-0.5424805,0.2529297,0.7978516,0.1762695,-0.02294922,-0.3725586
1727,1.5625,0.375,1.0625,-0.5463867,0.2568359,0.7939453,0.175293,-0.01904297,-0.3740234
1728,1.625,0.625,1.0625,-0.5385742,0.2607422,0.7939453,0.175293,-0.01660156,-0.3740234
1730,1.25,0.5625,0.875,-0.5385742,0.2646484,0.7822266,0.175293,-0.01660156,-0.3740234
1731,1,0.6875,0.8125,-0.534668,0.2763672,0.7822266,0.1787109,-0.02392578,-0.3725586
1733,0.4375,0.375,0.875,-0.534668,0.2802734,0.7900391,0.175293,-0.01660156,-0.3725586
1734,0.125,0.4375,0.75,-0.5307617,0.2724609,0.7939453,0.175293,-0.01660156,-0.3725586
1736,0.25,0.4375,0.375,-0.5385742,0.2724609,0.7978516,0.1762695,-0.01757813,-0.3725586
1737,0,0.4375,0.4375,-0.534668,0.2607422,0.7900391,0.1762695,-0.02294922,-0.3725586
1739,-0.0625,0.375,0.3125,-0.5385742,0.2685547,0.7900391,0.1762695,-0.02294922,-0.3725586
1740,0,0.6875,0.25,-0.5385742,0.2646484,0.7978516,0.1738281,-0.01660156,-0.3740234
1742,0.1875,0.375,0.0625,-0.5385742,0.2685547,0.7900391,0.1762695,-0.01757813,-0.3740234
1743,0,0.0625,0,-0.5307617,0.2724609,0.7861328,0.1762695,-0.01757813,-0.3740234
1745,-0.125,0.5,0,-0.5424805,0.2724609,0.7939453,0.1777344,-0.02294922,-0.3740234
1747,-0.375,0.3125,-0.0625,-0.5463867,0.2685547,0.7900391,0.175293,-0.01660156,-0.3725586
1749,-0.6875,0.125,0,-0.5385742,0.2607422,0.7900391,0.175293,-0.01660156,-0.3725586
1750,-0.3125,0,0.0625,-0.5424805,0.2529297,0.7939453,0.1777344,-0.01904297,-0.3740234
1752,0.125,0.1875,0,-0.5424805,0.2685547,0.8012695,0.1762695,-0.02148438,-0.3725586
1753,0.0625,0.4375,0.1875,-0.534668,0.2568359,0.7939453,0.1762695,-0.02148438,-0.3725586
1755,0.125,0,0.0625,-0.5385742,0.2568359,0.7939453,0.1762695,-0.01513672,-0.3725586
1756,0.125,0.1875,0.1875,-0.5385742,0.2607422,0.7978516,0.1777344,-0.02148438,-0.3725586
1758,-0.125,0.25,0.1875,-0.5385742,0.2529297,0.8012695,0.1777344,-0.02148438,-0.3725586
1759,0.125,0.0625,0.375,-0.5385742,0.2451172,0.8051758,0.1762695,-0.02148438,-0.3740234
1761,0.9375,0.3125,0.3125,-0.5385742,0.2333984,0.8012695,0.1738281,-0.01513672,-0.3725586
1762,0.8125,0.3125,0.4375,-0.5385742,0.2294922,0.7939453,0.1738281,-0.01513672,-0.3725586
1764,1.5625,0.125,0.5,-0.5463867,0.2255859,0.8051758,0.1777344,-0.02392578,-0.3725586
1765,2.1875,0.125,0.75,-0.5424805,0.2255859,0.7900391,0.1777344,-0.02001953,-0.3740234
1767,2.375,0.25,0.8125,-0.5424805,0.2373047,0.7939453,0.1777344,-0.02001953,-0.3740234
1768,2.875,0.0625,1.1875,-0.5385742,0.2333984,0.7900391,0.1738281,-0.01660156,-0.3740234
1770,3.4375,-0.25,1.25,-0.5424805,0.2490234,0.7900391,0.1777344,-0.02294922,-0.3725586
1771,3.5,-0.125,1.3125,-0.5385742,0.2529297,0.7939453,0.1777344,-0.02294922,-0.3725586
1773,3.5625,0.125,1.3125,-0.534668,0.2568359,0.7939453,0.175293,-0.01757813,-0.3740234
1774,3.6875,0,1.0625,-0.5463867,0.2490234,0.7939453,0.1777344,-0.01660156,-0.3740234
1776,4,0.125,1.0625,-0.534668,0.2490234,0.7900391,0.1777344,-0.01660156,-0.3740234
1777,4.375,0.3125,1.1875,-0.534668,0.2451172,0.7978516,0.1777344,-0.02294922,-0.3740234
1779,4.25,0.125,1.5625,-0.5424805,0.2529297,0.7900391,0.175293,-0.01757813,-0.3740234
1780,4.25,0.25,1.0625,-0.5385742,0.2607422,0.7939453,0.175293,-0.01757813,-0.3740234
1782,3.9375,0,1.1875,-0.5385742,0.2685547,0.7978516,0.1777344,-0.01904297,-0.3740234
1783,3.8125,0.25,1.0625,-0.534668,0.2646484,0.8012695,0.1777344,-0.02539063,-0.3740234
1785,3.5,0.5625,0.875,-0.5385742,0.2607422,0.8012695,0.1777344,-0.02539063,-0.3740234
1786,3.3125,0.5,0.6875,-0.5385742,0.2607422,0.7939453,0.175293,-0.01757813,-0.3740234
1788,3.5,1,0.4375,-0.534668,0.2724609,0.7978516,0.1787109,-0.02148438,-0.3740234
1789,3.0625,1.125,-0.0625,-0.5268555,0.2915039,0.7900391,0.1787109,-0.02148438,-0.3740234
1791,2.5625,0.9375,0.125,-0.5424805,0.2841797,0.7744141,0.1762695,-0.02539063,-0.3725586
1792,2.375,0.625,-0.1875,-0.5307617,0.2802734,0.7822266,0.1738281,-0.01660156,-0.3740234
1794,2.125,0.6875,-0.25,-0.5307617,0.2724609,0.7900391,0.1738281,-0.01660156,-0.3740234
1795,1.875,0.4375,-0.25,-0.534668,0.2685547,0.7822266,0.1777344,-0.02294922,-0.3725586
1797,1.75,0.5625,-0.4375,-0.5385742,0.2607422,0.7900391,0.175293,-0.02392578,-0.3725586
1798,1.4375,0.75,-0.0625,-0.5424805,0.2490234,0.8012695,0.175293,-0.02392578,-0.3725586
1800,1.3125,0.9375,-0.25,-0.5385742,0.2490234,0.8012695,0.1762695,-0.01660156,-0.3740234
1801,1.3125,0.8125,0.125,-0.5424805,0.2529297,0.7939453,0.1787109,-0.02392578,-0.3725586
1803,1.8125,0.625,0,-0.5385742,0.2646484,0.7978516,0.1787109,-0.02392578,-0.3725586
1804,1.5,0.6875,0.1875,-0.534668,0.2685547,0.7822266,0.175293,-0.02294922,-0.3725586
1806,1.25,0.6875,-0.25,-0.5307617,0.2763672,0.7900391,0.175293,-0.01757813,-0.3740234
1807,0.625,0.8125,0,-0.5424805,0.2724609,0.7822266,0.175293,-0.01757813,-0.3740234
1809,0.5,0.625,-0.1875,-0.5385742,0.2724609,0.7939453,0.1787109,-0.02539063,-0.3725586
1810,0.875,0.625,-0.375,-0.5424805,0.2685547,0.7900391,0.1762695,-0.02148438,-0.3740234
1812,0.5625,0.75,-0.375,-0.5385742,0.2724609,0.7900391,0.1762695,-0.02148438,-0.3740234
1813,0.4375,0.6875,-0.4375,-0.5424805,0.2685547,0.7783203,0.1762695,-0.01757813,-0.3754883
1815,0.4375,0.5625,-0.75,-0.534668,0.2724609,0.7900391,0.1787109,-0.02636719,-0.3725586
1816,0.0625,0.625,-0.9375,-0.5385742,0.2763672,0.7822266,0.1787109,-0.02636719,-0.3725586
1818,0,0.5625,-1.1875,-0.5424805,0.2802734,0.7861328,0.1762695,-0.01904297,-0.3740234
1819,-0.375,0.5625,-1.25,-0.534668,0.2724609,0.7900391,0.1787109,-0.02001953,-0.3740234
1821,-0.5,0.625,-1.5,-0.5385742,0.2646484,0.7939453,0.1787109,-0.02001953,-0.3740234
1822,-0.625,0.8125,-1.3125,-0.5385742,0.2568359,0.7978516,0.1801758,-0.02392578,-0.3725586
1824,0,0.8125,-1.125,-0.5424805,0.2451172,0.8051758,0.175293,-0.01757813,-0.3725586
1825,0,1.3125,-1.125,-0.534668,0.2451172,0.8051758,0.175293,-0.01757813,-0.3725586
1827,-0.25,1.5625,-0.75,-0.5385742,0.2490234,0.8051758,0.1762695,-0.02001953,-0.3754883
1828,-0.125,1.75,-0.625,-0.5424805,0.2451172,0.7978516,0.1777344,-0.02392578,-0.3754883
1830,0.0625,1.75,-0.6875,-0.5424805,0.2607422,0.7978516,0.1777344,-0.02392578,-0.3754883
1831,0.3125,1.9375,-0.625,-0.534668,0.2568359,0.7900391,0.1762695,-0.01757813,-0.3725586
1833,0.6875,2.3125,-0.4375,-0.5385742,0.2607422,0.8051758,0.1787109,-0.02294922,-0.3725586
1834,1.0625,1.875,-0.4375,-0.5385742,0.2568359,0.7939453,0.1787109,-0.02294922,-0.3725586
1836,0.9375,2.375,-0.6875,-0.5385742,0.2646484,0.7978516,0.1787109,-0.02294922,-0.3725586
1837,-0.0625,2.8125,-3.3125,-0.5307617,0.2802734,0.7939453,0.1762695,-0.01660156,-0.3740234
1839,1.8125,3.625,-1,-0.534668,0.2138672,0.7900391,0.1762695,-0.01660156,-0.3740234
1840,0.875,2.125,-1.25,-0.5541992,0.2568359,0.7861328,0.1787109,-0.02392578,-0.371582
1842,1.6875,2.9375,-1.5,-0.5385742,0.2451172,0.8051758,0.1762695,-0.02148438,-0.3740234
1845,2.8125,2.875,-0.9375,-0.5463867,0.2373047,0.7978516,0.1762695,-0.02148438,-0.3740234
1847,2.625,3.125,-1.25,-0.550293,0.2490234,0.7939453,0.1777344,-0.01757813,-0.3740234
1848,3.375,3.1875,-1.1875,-0.5424805,0.2451172,0.8012695,0.1801758,-0.02392578,-0.3740234
1850,4,3.75,-1.125,-0.5463867,0.2568359,0.7978516,0.1801758,-0.02392578,-0.3740234
1851,4.375,3.75,-1,-0.550293,0.2490234,0.7900391,0.1762695,-0.02148438,-0.3725586
1853,5.3125,3.6875,-0.9375,-0.5463867,0.2529297,0.7900391,0.1762695,-0.01757813,-0.3725586
1854,4.875,4.1875,-1.5,-0.5424805,0.2607422,0.8208008,0.1762695,-0.01757813,-0.3725586
1856,5,4.5625,-0.5625,-0.550293,0.2373047,0.7939453,0.1801758,-0.02539063,-0.3725586
1857,5.25,4.25,-0.25,-0.5541992,0.2373047,0.8012695,0.1762695,-0.01904297,-0.3740234
1859,6.3125,3.9375,0.3125,-0.5463867,0.2373047,0.7939453,0.1762695,-0.01904297,-0.3740234
1860,6.6875,4.1875,-0.1875,-0.5424805,0.2529297,0.7861328,0.1762695,-0.02001953,-0.3725586
1862,8.75,7.625,-2.5625,-0.5307617,0.2529297,0.8398438,0.1801758,-0.02539063,-0.3725586
1863,6.4375,3.3125,-0.25,-0.597168,0.2802734,0.7324219,0.1801758,-0.02539063,-0.3725586
1865,5.75,2.8125,0.5,-0.5463867,0.2529297,0.7900391,0.1777344,-0.01904297,-0.371582
1866,5.8125,4,0.0625,-0.534668,0.2607422,0.8012695,0.1787109,-0.02294922,-0.3740234
1868,5.4375,3.875,-0.125,-0.5541992,0.2451172,0.7861328,0.1787109,-0.02294922,-0.3740234
1869,5.75,3.5625,-0.5625,-0.550293,0.2333984,0.7822266,0.1787109,-0.02539063,-0.3725586
1871,6.6875,2.4375,0.0625,-0.5463867,0.2568359,0.7822266,0.1762695,-0.01904297,-0.3754883
1872,6.5,2.875,-0.5,-0.5541992,0.2802734,0.7744141,0.1762695,-0.01904297,-0.3754883
1874,7,3.3125,-0.1875,-0.5385742,0.2880859,0.7822266,0.1801758,-0.02294922,-0.3725586
1875,5.875,2.625,-0.5,-0.550293,0.2993164,0.7744141,0.1787109,-0.02539063,-0.3740234
1877,4.6875,2.875,-0.875,-0.5424805,0.2880859,0.7900391,0.1787109,-0.02539063,-0.3740234
1878,4.5,3.3125,-0.625,-0.5424805,0.2685547,0.7822266,0.1777344,-0.01904297,-0.3740234
1880,4.75,3.1875,-1.375,-0.5463867,0.2607422,0.7631836,0.1801758,-0.02636719,-0.3725586
1881,5.375,2.9375,-1.25,-0.5463867,0.2763672,0.7822266,0.1801758,-0.02636719,-0.3725586
1883,5.75,2.6875,-1.5625,-0.5307617,0.2841797,0.7822266,0.1777344,-0.02539063,-0.3740234
1884,4.875,2.625,-1.625,-0.5424805,0.2763672,0.7900391,0.1777344,-0.02001953,-0.371582
1886,3.875,2.8125,-1.625,-0.550293,0.2724609,0.7978516,0.1777344,-0.02001953,-0.371582
1887,3.8125,2.875,-2.125,-0.5268555,0.2880859,0.7861328,0.1811523,-0.02636719,-0.3740234
1889,3.75,3.1875,-2.375,-0.5424805,0.2880859,0.7861328,0.1801758,-0.02392578,-0.3725586
1890,3.375,2.75,-2.3125,-0.5424805,0.2685547,0.7822266,0.1801758,-0.02392578,-0.3725586
1892,3.8125,3.625,-2.1875,-0.5385742,0.2646484,0.7900391,0.1787109,-0.02001953,-0.3701172
1893,3.5625,3,-2.75,-0.5463867,0.2880859,0.7705078,0.1826172,-0.02929688,-0.3725586
1895,3.3125,3.625,-2.25,-0.5463867,0.2568359,0.7861328,0.1826172,-0.02929688,-0.3725586
1896,4.375,3.25,-2.5,-0.5463867,0.2685547,0.7705078,0.1777344,-0.02539063,-0.3725586
1898,4.6875,3.1875,-2.5,-0.5385742,0.2763672,0.7822266,0.1777344,-0.02148438,-0.3725586
1899,4.25,3.4375,-3.0625,-0.5424805,0.2763672,0.7822266,0.1777344,-0.02148438,-0.3725586
1901,4.3125,3.125,-3.25,-0.5424805,0.2880859,0.7744141,0.1826172,-0.02929688,-0.3740234
1902,3.6875,2.9375,-2.875,-0.5463867,0.2880859,0.7744141,0.1777344,-0.02148438,-0.3725586
1904,2.6875,2.9375,-3.1875,-0.5385742,0.2954102,0.7705078,0.1777344,-0.02148438,-0.3725586
1905,2.8125,3,-2.6875,-0.5424805,0.2763672,0.7744141,0.1801758,-0.02392578,-0.3740234
1907,2.5,3.1875,-2.875,-0.5581055,0.2724609,0.7744141,0.1811523,-0.02783203,-0.3725586
1908,2.125,3.0625,-2.8125,-0.5541992,0.2607422,0.7705078,0.1811523,-0.02783203,-0.3725586
1910,1.9375,2.875,-2.3125,-0.565918,0.2607422,0.7744141,0.1787109,-0.02148438,-0.3740234
1911,2.3125,2.1875,-1.6875,-0.5698242,0.2451172,0.7705078,0.1787109,-0.02539063,-0.3725586
1913,2.5625,1.875,-1.5625,-0.5620117,0.2568359,0.7822266,0.1787109,-0.02539063,-0.3725586
1914,2.625,1.5625,-1.3125,-0.5541992,0.2607422,0.7861328,0.1811523,-0.02929688,-0.3725586
1916,2.25,0.5625,-2.125,-0.534668,0.2841797,0.7783203,0.1777344,-0.02294922,-0.3725586
1917,-0.0625,0,-5.75,-0.4765625,0.1674805,0.9208984,0.1777344,-0.02294922,-0.3725586
1919,0.8125,2.5,-3.3125,-0.5854492,0.09375,0.7592773,0.1811523,-0.02539063,-0.3725586
1920,10.125,-1.375,-3.1875,-0.5776367,0.2954102,0.7055664,0.1811523,-0.02929688,-0.3740234
1922,7.0625,0.3125,-2.6875,-0.5620117,0.3305664,0.7631836,0.1811523,-0.02929688,-0.3740234
1923,4.625,0.5,-2.5,-0.565918,0.3540039,0.7475586,0.1777344,-0.02148438,-0.3740234
1925,2.625,0.75,-1.375,-0.5620117,0.3110352,0.7553711,0.1811523,-0.02636719,-0.3725586
1926,0.625,1.3125,-0.9375,-0.5541992,0.3188477,0.7744141,0.1811523,-0.02636719,-0.3725586
1928,0.3125,1.5,-1.5625,-0.534668,0.2880859,0.7744141,0.1787109,-0.02636719,-0.371582
1929,1.0625,1.8125,-1.5,-0.550293,0.2529297,0.7822266,0.1801758,-0.02001953,-0.3725586
1931,2.0625,1,-1.0625,-0.5541992,0.2568359,0.7861328,0.1801758,-0.02001953,-0.3725586
1932,3.0625,4.25,-0.75,-0.5932617,0.2529297,0.84375,0.1826172,-0.02783203,-0.3701172
1934,2.5,-0.25,-0.375,-0.5307617,0.2685547,0.7285156,0.1787109,-0.02539063,-0.3725586
1935,2.75,0.8125,-0.9375,-0.5424805,0.2724609,0.7822266,0.1787109,-0.02539063,-0.3725586
1937,1.75,0.5625,-0.9375,-0.550293,0.2841797,0.7783203,0.1801758,-0.02148438,-0.3725586
1938,2.0625,0.4375,-1.0625,-0.5541992,0.2685547,0.7822266,0.1811523,-0.03027344,-0.371582
1940,2.4375,0.5,-1.25,-0.550293,0.2685547,0.7861328,0.1811523,-0.03027344,-0.371582
1942,3.25,-1.4375,-2.5,-0.5229492,0.2915039,0.7822266,0.1777344,-0.02539063,-0.3725586
1944,-1.0625,3.75,-6.625,-0.519043,0.046875,0.9707031,0.1811523,-0.02392578,-0.3725586
1945,6.8125,-1.0625,-2.375,-0.6245117,0.175293,0.7167969,0.1811523,-0.02392578,-0.3725586
1947,10.3125,-1.8125,-2.625,-0.581543,0.3618164,0.7475586,0.1826172,-0.02929688,-0.371582
1948,6.375,-0.5625,-2.5625,-0.5424805,0.3540039,0.7592773,0.1787109,-0.02294922,-0.3725586
1950,5.4375,-0.5625,-2.625,-0.5424805,0.3500977,0.7705078,0.1787109,-0.02294922,-0.3725586
1951,1.375,1.4375,-2.25,-0.565918,0.2802734,0.7861328,0.1811523,-0.02636719,-0.3740234
1953,2.0625,1.25,-1.375,-0.5698242,0.3227539,0.7553711,0.1787109,-0.03027344,-0.3740234
1954,3.1875,0.4375,-1.25,-0.565918,0.3422852,0.7363281,0.1787109,-0.03027344,-0.3740234
1956,2.25,0.8125,-1.6875,-0.5424805,0.2841797,0.7783203,0.1777344,-0.02148438,-0.3740234
1957,2.1875,0.8125,-1.6875,-0.5541992,0.2490234,0.7783203,0.1811523,-0.02636719,-0.3725586
1959,2.625,0.5,-1.875,-0.5463867,0.2841797,0.7822266,0.1811523,-0.02636719,-0.3725586
1960,2.8125,0.375,-1.875,-0.5463867,0.2954102,0.7670898,0.1811523,-0.03027344,-0.3740234
1962,3.0625,0.5,-2.25,-0.5385742,0.3149414,0.7631836,0.1777344,-0.02294922,-0.3740234
1963,2.625,0.5625,-3,-0.5307617,0.3344727,0.7592773,0.1777344,-0.02294922,-0.3740234
1965,1.0625,2.0625,-3.5625,-0.5229492,0.3149414,0.7783203,0.1811523,-0.02929688,-0.371582
1966,0.5,1.5,-4.0625,-0.5424805,0.3071289,0.7670898,0.1801758,-0.02636719,-0.3725586
1968,0.125,2,-4.9375,-0.5307617,0.3266602,0.7744141,0.1801758,-0.02636719,-0.3725586
1969,-0.375,2.0625,-4.8125,-0.534668,0.3032227,0.7744141,0.1801758,-0.02294922,-0.3740234
1971,-0.3125,2.1875,-5.3125,-0.5463867,0.2954102,0.7670898,0.1826172,-0.02929688,-0.3725586
1972,-1.125,2.4375,-5.3125,-0.550293,0.2763672,0.7783203,0.1826172,-0.02929688,-0.3725586
1974,-1.5,1.875,-4.875,-0.5581055,0.2568359,0.7670898,0.1777344,-0.02636719,-0.3725586
1975,0.125,2,-5,-0.5581055,0.2529297,0.7631836,0.1777344,-0.02148438,-0.3740234
1977,0.1875,1.875,-4.9375,-0.5620117,0.2646484,0.7744141,0.1777344,-0.02148438,-0.3740234
1978,0.25,1.9375,-5.1875,-0.5424805,0.2841797,0.7744141,0.1826172,-0.02929688,-0.371582
1980,0.0625,2,-5.125,-0.5463867,0.2802734,0.7592773,0.1787109,-0.02539063,-0.371582
1981,-0.0625,2.375,-5.5625,-0.550293,0.2802734,0.7744141,0.1787109,-0.02539063,-0.371582
1983,0.1875,1.9375,-5.625,-0.5541992,0.2802734,0.7631836,0.1801758,-0.02392578,-0.371582
1984,-0.25,1.875,-5.75,-0.550293,0.2915039,0.7670898,0.1826172,-0.03027344,-0.3740234
1986,-0.625,2.1875,-5.875,-0.5463867,0.2802734,0.7783203,0.1826172,-0.03027344,-0.3740234
1987,-0.125,1.8125,-5.6875,-0.5620117,0.2646484,0.7592773,0.1787109,-0.02392578,-0.3740234
1989,0.875,1.3125,-5.3125,-0.5541992,0.2490234,0.7631836,0.1811523,-0.02392578,-0.3740234
1990,0.3125,1.5,-5.5625,-0.5581055,0.2646484,0.7744141,0.1811523,-0.02392578,-0.3740234
1992,-0.0625,1.375,-5.75,-0.5541992,0.2685547,0.7861328,0.1801758,-0.02929688,-0.3740234
1993,0.25,1.125,-5.5625,-0.5620117,0.2646484,0.7705078,0.1801758,-0.02294922,-0.3725586
1995,0.1875,1.3125,-5.375,-0.5581055,0.2568359,0.7670898,0.1801758,-0.02294922,-0.3725586
1996,0.625,1.0625,-5.25,-0.5620117,0.2685547,0.7744141,0.1811523,-0.02636719,-0.3725586
1998,1.125,0.8125,-5.625,-0.5581055,0.2802734,0.7631836,0.1826172,-0.03027344,-0.3725586
1999,1.3125,0.4375,-5.375,-0.5424805,0.2915039,0.7705078,0.1826172,-0.03027344,-0.3725586
2001,0.4375,0.6875,-5.6875,-0.5463867,0.2880859,0.7705078,0.1801758,-0.02148438,-0.371582
2002,0.25,0.9375,-6.1875,-0.550293,0.2880859,0.7705078,0.1811523,-0.02783203,-0.3725586
2004,0.375,0.75,-6.5,-0.5541992,0.2954102,0.7670898,0.1811523,-0.02783203,-0.3725586
2005,-0.125,0.625,-6.6875,-0.5463867,0.2880859,0.7744141,0.1826172,-0.02636719,-0.3740234
2007,-0.5,0.4375,-6.875,-0.565918,0.2915039,0.7631836,0.1787109,-0.02148438,-0.3725586
2008,-0.5625,0.25,-6.9375,-0.565918,0.2954102,0.7670898,0.1787109,-0.02148438,-0.3725586
2010,-0.25,-0.125,-7.1875,-0.5541992,0.2954102,0.7592773,0.1826172,-0.02929688,-0.3740234
2011,-0.9375,0,-7.3125,-0.5385742,0.3188477,0.7553711,0.1801758,-0.02929688,-0.3725586
2013,-1.0625,-0.1875,-7.75,-0.5424805,0.3266602,0.7553711,0.1801758,-0.02929688,-0.3725586
2014,-2.375,-0.375,-8.1875,-0.5463867,0.3032227,0.7783203,0.1801758,-0.02148438,-0.3725586
2016,-2.875,-0.125,-8.6875,-0.5541992,0.3071289,0.7744141,0.1811523,-0.02929688,-0.3725586
2017,-4.1875,0.0625,-8.9375,-0.550293,0.3071289,0.7705078,0.1811523,-0.02929688,-0.3725586
2019,-4.5,-0.1875,-8.6875,-0.5541992,0.2763672,0.7705078,0.1787109,-0.02539063,-0.3740234
2020,-3.3125,-0.875,-8.5625,-0.5541992,0.2529297,0.7939453,0.1801758,-0.02001953,-0.3740234
2022,-4.125,-0.3125,-8.5625,-0.5463867,0.2724609,0.7822266,0.1801758,-0.02001953,-0.3740234
2023,-4.75,-1.1875,-8.4375,-0.5893555,0.2802734,0.7631836,0.1826172,-0.02929688,-0.3725586
2025,-3.8125,-1.4375,-8.125,-0.565918,0.2333984,0.7861328,0.1801758,-0.02294922,-0.371582
2026,-4.1875,-1,-8.1875,-0.5698242,0.2451172,0.7939453,0.1801758,-0.02294922,-0.371582
2028,-3.9375,-1.4375,-7.5,-0.5698242,0.2451172,0.7822266,0.1787109,-0.02001953,-0.371582
2029,-3.25,-1.9375,-6.3125,-0.597168,0.2255859,0.7592773,0.1826172,-0.02929688,-0.3725586
2031,-2.1875,-2.625,-5.875,-0.5893555,0.2451172,0.7783203,0.1826172,-0.02929688,-0.3725586
2032,-1.875,-3.375,-5.5,-0.581543,0.2490234,0.7861328,0.1787109,-0.02148438,-0.3725586
2034,-1.75,-3.8125,-4.8125,-0.581543,0.2529297,0.7861328,0.1811523,-0.02392578,-0.3740234
2035,-1.625,-4.3125,-4.125,-0.5776367,0.2373047,0.7744141,0.1811523,-0.02392578,-0.3740234
2037,-1.9375,-3.9375,-3.625,-0.581543,0.2412109,0.7900391,0.1811523,-0.02929688,-0.3740234
2040,-0.625,-4.4375,-3.125,-0.5776367,0.2373047,0.7822266,0.1777344,-0.02148438,-0.3754883
2042,-0.5,-4.625,-2.9375,-0.5776367,0.2607422,0.7705078,0.1777344,-0.02148438,-0.3754883
2043,-0.8125,-4.8125,-2.625,-0.565918,0.2646484,0.7744141,0.1811523,-0.02539063,-0.3725586
2045,-0.625,-5.1875,-2.0625,-0.5776367,0.2568359,0.7744141,0.1801758,-0.02539063,-0.3725586
2046,-0.6875,-5.375,-2.125,-0.5698242,0.2607422,0.7822266,0.1801758,-0.02539063,-0.3725586
2048,-0.9375,-5.5,-1.9375,-0.581543,0.2724609,0.7783203,0.1777344,-0.02148438,-0.3740234
2049,-0.875,-5.9375,-1.4375,-0.5737305,0.2529297,0.7670898,0.1811523,-0.02539063,-0.3754883
2051,-0.5625,-6.1875,-1.5,-0.5737305,0.2763672,0.7631836,0.1811523,-0.02539063,-0.3754883
2052,-0.625,-6.4375,-1.4375,-0.5581055,0.2841797,0.7744141,0.1787109,-0.02392578,-0.3754883
2054,-1.75,-6.125,-1.3125,-0.5581055,0.2880859,0.7705078,0.1777344,-0.02001953,-0.3725586
2055,-2.125,-5.6875,-1.5,-0.5581055,0.2841797,0.7822266,0.1777344,-0.02001953,-0.3725586
2057,-2.4375,-5.75,-1.4375,-0.5463867,0.2880859,0.7670898,0.1811523,-0.02636719,-0.371582
2058,-2.625,-5.4375,-1.625,-0.565918,0.2915039,0.7900391,0.1801758,-0.02392578,-0.3725586
2060,-3.5625,-5.1875,-1.25,-0.565918,0.2607422,0.7939453,0.1801758,-0.02392578,-0.3725586
2061,-3.5625,-5.5,-0.9375,-0.5698242,0.2607422,0.7631836,0.1777344,-0.01904297,-0.3740234
2063,-3.3125,-6,-0.75,-0.5620117,0.2646484,0.7514648,0.1811523,-0.02636719,-0.3740234
2064,-4.0625,-5.3125,-0.3125,-0.5385742,0.2763672,0.7592773,0.1811523,-0.02636719,-0.3740234
2066,-4.0625,-4.6875,0.5,-0.550293,0.2880859,0.7783203,0.1762695,-0.02294922,-0.3725586
2067,-4.5,-4.3125,2.25,-0.5620117,0.3344727,0.7705078,0.1777344,-0.02148438,-0.3740234
2069,-6.3125,-3.8125,3.125,-0.5463867,0.3808594,0.7592773,0.1777344,-0.02148438,-0.3740234
